{
  "resourceType": "Bundle",
  "id": "2ff29528-a1f6-431c-afa5-e3a03426caaf",
  "meta": {
    "versionId": "1",
    "lastUpdated": "2023-06-01T12:10:50.776+00:00",
    "profile": [
      "http://hl7.org/fhir/us/ecr/StructureDefinition/eicr-document-bundle"
    ]
  },
  "identifier": {
    "system": "http://example.com/identifier",
    "value": "Sample Value"
  },
  "type": "document",
  "timestamp": "2023-05-06T16:28:08.9+00:00",
  "entry": [
    {
      "resource": {
        "resourceType": "Composition",
        "id": "a6a38009-7295-458c-b1a8-9c915cf7d3e1",
        "extension": [
          {
            "url": "http://hl7.org/fhir/StructureDefinition/composition-clinicaldocument-versionNumber",
            "valueString": "1"
          }
        ],
        "identifier": {
          "value": "a6a38009-7295-458c-b1a8-9c915cf7d3e1"
        },
        "status": "final",
        "type": {
          "coding": [
            {
              "system": "http://loinc.org",
              "code": "55751-2",
              "display": "Public Health Case Report"
            }
          ],
          "text": "Public Health Case Report"
        },
        "subject": {
          "reference": "https://gw.interop.community/Monroe4Saffron/data/Patient/37784"
        },
        "encounter": {
          "reference": "https://gw.interop.community/Monroe4Saffron/data/Encounter/500591"
        },
        "date": "2023-05-06T16:28:08+00:00",
        "author": [
          {
            "reference": "https://gw.interop.community/Monroe4Saffron/data/Practitioner/35845"
          }
        ],
        "title": "Public Health Case Report",
        "custodian": {
          "reference": "https://gw.interop.community/Monroe4Saffron/data/Organization/32245"
        },
        "section": [
          {
            "code": {
              "coding": [
                {
                  "system": "http://loinc.org",
                  "code": "46239-0",
                  "display": "Chief complaint+Reason for visit Narrative"
                }
              ],
              "text": "Chief complaint+Reason for visit Narrative"
            }
          },
          {
            "code": {
              "coding": [
                {
                  "system": "http://loinc.org",
                  "code": "10164-2",
                  "display": "History of Present illness Narrative"
                }
              ],
              "text": "History of Present illness Narrative"
            }
          },
          {
            "code": {
              "coding": [
                {
                  "system": "http://loinc.org",
                  "code": "10187-3",
                  "display": "Review of Systems narrative"
                }
              ],
              "text": "Review of Systems narrative"
            }
          },
          {
            "code": {
              "coding": [
                {
                  "system": "http://loinc.org",
                  "code": "11450-4",
                  "display": "Problem Section Narrative"
                }
              ],
              "text": "Problem Section Narrative"
            },
            "entry": [
              {
                "reference": "https://gw.interop.community/Monroe4Saffron/data/Condition/588356"
              },
              {
                "reference": "https://gw.interop.community/Monroe4Saffron/data/Condition/629906"
              },
              {
                "reference": "https://gw.interop.community/Monroe4Saffron/data/Condition/510649"
              },
              {
                "reference": "https://gw.interop.community/Monroe4Saffron/data/Condition/813195"
              },
              {
                "reference": "https://gw.interop.community/Monroe4Saffron/data/Condition/88361"
              },
              {
                "extension": [
                  {
                    "extension": [
                      {
                        "url": "triggerCodeValueSet",
                        "valueString": "http://ersd.aimsplatform.org/fhir/ValueSet/sdtc"
                      },
                      {
                        "url": "triggerCodeValueSetVersion",
                        "valueString": "2022-10-19"
                      },
                      {
                        "url": "triggerCode",
                        "valueCoding": {
                          "system": "http://snomed.info/sct",
                          "code": "840544004"
                        }
                      }
                    ],
                    "url": "http://hl7.org/fhir/us/ecr/StructureDefinition/eicr-trigger-code-flag-extension"
                  }
                ],
                "reference": "https://gw.interop.community/Monroe4Saffron/data/Condition/813704"
              },
              {
                "reference": "https://gw.interop.community/Monroe4Saffron/data/Condition/639584"
              },
              {
                "reference": "https://gw.interop.community/Monroe4Saffron/data/Condition/813196"
              },
              {
                "reference": "https://gw.interop.community/Monroe4Saffron/data/Condition/813194"
              },
              {
                "reference": "https://gw.interop.community/Monroe4Saffron/data/Condition/813197"
              },
              {
                "reference": "https://gw.interop.community/Monroe4Saffron/data/Condition/298708"
              },
              {
                "reference": "https://gw.interop.community/Monroe4Saffron/data/Condition/813714"
              },
              {
                "reference": "https://gw.interop.community/Monroe4Saffron/data/Condition/616933"
              },
              {
                "reference": "https://gw.interop.community/Monroe4Saffron/data/Condition/639543"
              }
            ]
          },
          {
            "code": {
              "coding": [
                {
                  "system": "http://loinc.org",
                  "code": "11348-0",
                  "display": "Past Medical History Narrative"
                }
              ],
              "text": "Past Medical History Narrative"
            }
          },
          {
            "code": {
              "coding": [
                {
                  "system": "http://loinc.org",
                  "code": "29549-3",
                  "display": "Medications Administered Narrative"
                }
              ],
              "text": "Medications Administered Narrative"
            }
          },
          {
            "code": {
              "coding": [
                {
                  "system": "http://loinc.org",
                  "code": "30954-2",
                  "display": "Results Section Narrative"
                }
              ],
              "text": "Results Section Narrative"
            }
          },
          {
            "code": {
              "coding": [
                {
                  "system": "http://loinc.org",
                  "code": "18776-5",
                  "display": "Plan of Treatment Narrative"
                }
              ],
              "text": "Plan of Treatment Narrative"
            },
            "entry": [
              {
                "reference": "https://gw.interop.community/Monroe4Saffron/data/MedicationRequest/616939"
              },
              {
                "reference": "https://gw.interop.community/Monroe4Saffron/data/MedicationRequest/639549"
              }
            ]
          },
          {
            "code": {
              "coding": [
                {
                  "system": "http://loinc.org",
                  "code": "11369-6",
                  "display": "Immunizations Narrative"
                }
              ],
              "text": "Immunizations Narrative"
            },
            "entry": [
              {
                "reference": "https://gw.interop.community/Monroe4Saffron/data/Immunization/2597598"
              },
              {
                "reference": "https://gw.interop.community/Monroe4Saffron/data/Immunization/2447547"
              },
              {
                "reference": "https://gw.interop.community/Monroe4Saffron/data/Immunization/298698"
              },
              {
                "reference": "https://gw.interop.community/Monroe4Saffron/data/Immunization/2568161"
              }
            ]
          },
          {
            "code": {
              "coding": [
                {
                  "system": "http://loinc.org",
                  "code": "47519-4",
                  "display": "Procedure Section Narrative"
                }
              ],
              "text": "Procedure Section Narrative"
            }
          },
          {
            "code": {
              "coding": [
                {
                  "system": "http://loinc.org",
                  "code": "8716-3",
                  "display": "Vital Signs Narrative"
                }
              ],
              "text": "Vital Signs Narrative"
            }
          },
          {
            "code": {
              "coding": [
                {
                  "system": "http://loinc.org",
                  "code": "29762-2",
                  "display": "Social History Narrative"
                }
              ],
              "text": "Social History Narrative"
            }
          },
          {
            "code": {
              "coding": [
                {
                  "system": "http://loinc.org",
                  "code": "90767-5",
                  "display": "Pregnancy Section Narrative"
                }
              ],
              "text": "Pregnancy Section Narrative"
            }
          },
          {
            "code": {
              "coding": [
                {
                  "system": "http://loinc.org",
                  "code": "83910-0",
                  "display": "Emergency Outbreak Section Narrative"
                }
              ],
              "text": "Emergency Outbreak Section Narrative"
            }
          }
        ]
      }
    },
    {
      "fullUrl": "https://gw.interop.community/Monroe4Saffron/data/Condition/588356",
      "resource": {
        "resourceType": "Condition",
        "id": "588356",
        "meta": {
          "versionId": "1",
          "lastUpdated": "2023-04-04T23:23:53+00:00",
          "source": "#H6F9538Ua9u1c6mC"
        },
        "text": {
          "status": "generated",
          "div": "<div xmlns=\"http://www.w3.org/1999/xhtml\">This is a simple narrative with only plain text</div>"
        },
        "extension": [
          {
            "url": "http://mihin.org/extension/copyright",
            "valueString": "Copyright 2014-2022 Michigan Health Information Network Shared Services. Licensed under the Apache License, Version 2.0 (the 'License'); you may not use this file except in compliance with the License. You may obtain a copy of the License at  http://www.apache.org/licenses/LICENSE-2.0.  Unless required by applicable law or agreed to in writing, software distributed under the License is distributed on an 'AS IS' BASIS, WITHOUT WARRANTIES OR CONDITIONS OF ANY KIND, either express or implied. See the License for the specific language governing permissions and limitations under the License."
          }
        ],
        "identifier": [
          {
            "use": "official",
            "system": "http://mihin.org/fhir/sid/elementId",
            "value": "bc5c4177-06bf-4c51-b651-e04803defa1c"
          }
        ],
        "clinicalStatus": {
          "coding": [
            {
              "system": "http://hl7.org/fhir/ValueSet/condition-clinical",
              "code": "active",
              "display": "Active"
            }
          ]
        },
        "verificationStatus": {
          "coding": [
            {
              "system": "http://hl7.org/fhir/ValueSet/condition-ver-status",
              "code": "confirmed",
              "display": "Confirmed"
            }
          ]
        },
        "category": [
          {
            "coding": [
              {
                "system": "http://hl7.org/fhir/ValueSet/condition-category",
                "code": "encounter-diagnosis",
                "display": "Encounter Diagnosis"
              }
            ]
          }
        ],
        "code": {
          "coding": [
            {
              "system": "http://snomed.info/sct",
              "code": "3928002",
              "display": "Zika virus disease (disorder)"
            },
            {
              "system": "http://hl7.org/fhir/sid/icd-10",
              "code": "P35.4",
              "display": "Zika virus disease (disorder)"
            }
          ]
        },
        "subject": {
          "reference": "Patient/37784",
          "display": "Troy Daryl Lozano Jr"
        },
        "encounter": {
          "reference": "Encounter/588415",
          "display": "Zika_Fever [Doctor_Visit [Encounter]]"
        },
        "onsetDateTime": "2019-08-13T10:20:00+00:00",
        "recordedDate": "2019-08-13T10:20:00+00:00",
        "asserter": {
          "reference": "Practitioner/35845",
          "identifier": {
            "system": "http://hl7.org/fhir/sid/us-npi",
            "value": "9999999755"
          },
          "display": "Jacqueline Betty Tyler MD"
        }
      }
    },
    {
      "fullUrl": "https://gw.interop.community/Monroe4Saffron/data/Patient/37784",
      "resource": {
        "resourceType": "Patient",
        "id": "37784",
        "meta": {
          "versionId": "2",
          "lastUpdated": "2023-05-06T04:22:22+00:00",
          "source": "#6eed04wD76NgMc71"
        },
        "text": {
          "status": "generated",
          "div": "<div xmlns=\"http://www.w3.org/1999/xhtml\">This is a simple narrative with only plain text</div>"
        },
        "extension": [
          {
            "url": "http://mihin.org/extension/copyright",
            "valueString": "Copyright 2014-2022 Michigan Health Information Network Shared Services. Licensed under the Apache License, Version 2.0 (the 'License'); you may not use this file except in compliance with the License. You may obtain a copy of the License at  http://www.apache.org/licenses/LICENSE-2.0.  Unless required by applicable law or agreed to in writing, software distributed under the License is distributed on an 'AS IS' BASIS, WITHOUT WARRANTIES OR CONDITIONS OF ANY KIND, either express or implied. See the License for the specific language governing permissions and limitations under the License."
          },
          {
            "url": "http://hl7.org/fhir/us/core/StructureDefinition/us-core-race",
            "valueCodeableConcept": {
              "coding": [
                {
                  "system": "http://terminology.hl7.org/CodeSystem/omb-race-category",
                  "code": "2106-3",
                  "display": "White"
                }
              ]
            }
          },
          {
            "url": "http://hl7.org/fhir/us/core/StructureDefinition/us-core-ethnicity",
            "valueCodeableConcept": {
              "coding": [
                {
                  "system": "http://terminology.hl7.org/CodeSystem/omb-ethnicity-category",
                  "code": "2186-5",
                  "display": "Not Hispanic or Latino"
                }
              ]
            }
          },
          {
            "url": "http://hl7.org/fhir/StructureDefinition/patient-religion",
            "valueCodeableConcept": {
              "coding": [
                {
                  "system": "http://terminology.hl7.org/CodeSystem/v3-ReligiousAffiliation",
                  "code": "1077",
                  "display": "Protestant"
                }
              ]
            }
          }
        ],
        "identifier": [
          {
            "use": "official",
            "type": {
              "coding": [
                {
                  "system": "http://terminology.hl7.org/CodeSystem/v2-0203",
                  "code": "SB",
                  "display": "Social Beneficiary Identifier"
                }
              ]
            },
            "system": "http://hl7.org/fhir/sid/us-ssn",
            "value": "000000909"
          },
          {
            "use": "official",
            "type": {
              "coding": [
                {
                  "system": "http://terminology.hl7.org/CodeSystem/v2-0203",
                  "code": "SB",
                  "display": "Social Beneficiary Identifier"
                }
              ]
            },
            "system": "http://mihin.org/fhir/cks",
            "value": "8afefcf4d6874010a7d48706bc947762"
          }
        ],
        "active": true,
        "name": [
          {
            "use": "official",
            "family": "Lozano",
            "given": [
              "Troy",
              "Daryl"
            ],
            "suffix": [
              "Jr"
            ]
          }
        ],
        "telecom": [
          {
            "system": "phone",
            "value": "248-555-5510",
            "use": "home"
          },
          {
            "system": "phone",
            "value": "248-555-1011",
            "use": "mobile"
          }
        ],
        "gender": "male",
        "birthDate": "1980-08-04",
        "address": [
          {
            "use": "home",
            "type": "postal",
            "line": [
              "669 N Elm Street"
            ],
            "city": "South Lyon",
            "district": "Monroe",
            "state": "Anywhere",
            "postalCode": "48178"
          }
        ]
      }
    },
    {
      "fullUrl": "https://gw.interop.community/Monroe4Saffron/data/Condition/629906",
      "resource": {
        "resourceType": "Condition",
        "id": "629906",
        "meta": {
          "versionId": "1",
          "lastUpdated": "2023-04-05T00:48:28+00:00",
          "source": "#m628m6DKmIOgSJBM"
        },
        "text": {
          "status": "generated",
          "div": "<div xmlns=\"http://www.w3.org/1999/xhtml\">This is a simple narrative with only plain text</div>"
        },
        "extension": [
          {
            "url": "http://mihin.org/extension/copyright",
            "valueString": "Copyright 2014-2022 Michigan Health Information Network Shared Services. Licensed under the Apache License, Version 2.0 (the 'License'); you may not use this file except in compliance with the License. You may obtain a copy of the License at  http://www.apache.org/licenses/LICENSE-2.0.  Unless required by applicable law or agreed to in writing, software distributed under the License is distributed on an 'AS IS' BASIS, WITHOUT WARRANTIES OR CONDITIONS OF ANY KIND, either express or implied. See the License for the specific language governing permissions and limitations under the License."
          }
        ],
        "identifier": [
          {
            "use": "official",
            "system": "http://mihin.org/fhir/sid/elementId",
            "value": "0a37cc60-4d46-4450-b3ce-6b1051152854"
          }
        ],
        "clinicalStatus": {
          "coding": [
            {
              "system": "http://hl7.org/fhir/ValueSet/condition-clinical",
              "code": "active",
              "display": "Active"
            }
          ]
        },
        "verificationStatus": {
          "coding": [
            {
              "system": "http://hl7.org/fhir/ValueSet/condition-ver-status",
              "code": "confirmed",
              "display": "Confirmed"
            }
          ]
        },
        "category": [
          {
            "coding": [
              {
                "system": "http://hl7.org/fhir/ValueSet/condition-category",
                "code": "encounter-diagnosis",
                "display": "Encounter Diagnosis"
              }
            ]
          }
        ],
        "code": {
          "coding": [
            {
              "system": "http://snomed.info/sct",
              "code": "40055000",
              "display": "Chronic sinusitis (disorder)"
            },
            {
              "system": "http://hl7.org/fhir/sid/icd-10",
              "code": "J32.9",
              "display": "Chronic sinusitis (disorder)"
            }
          ]
        },
        "subject": {
          "reference": "Patient/37784",
          "display": "Troy Daryl Lozano Jr"
        },
        "encounter": {
          "reference": "Encounter/629580",
          "display": "Sinusitis [Chronic_Sinusitis_Followup [Encounter]]"
        },
        "onsetDateTime": "2019-09-26T13:00:00+00:00",
        "recordedDate": "2019-09-26T13:00:00+00:00",
        "asserter": {
          "reference": "Practitioner/35297",
          "identifier": {
            "system": "http://hl7.org/fhir/sid/us-npi",
            "value": "9999999456"
          },
          "display": "Thelma Renee Montoya MD"
        }
      }
    },
    {
      "fullUrl": "https://gw.interop.community/Monroe4Saffron/data/Condition/510649",
      "resource": {
        "resourceType": "Condition",
        "id": "510649",
        "meta": {
          "versionId": "1",
          "lastUpdated": "2023-04-04T20:18:24+00:00",
          "source": "#hQgv1OHUYBbo07Jd"
        },
        "text": {
          "status": "generated",
          "div": "<div xmlns=\"http://www.w3.org/1999/xhtml\">This is a simple narrative with only plain text</div>"
        },
        "extension": [
          {
            "url": "http://mihin.org/extension/copyright",
            "valueString": "Copyright 2014-2022 Michigan Health Information Network Shared Services. Licensed under the Apache License, Version 2.0 (the 'License'); you may not use this file except in compliance with the License. You may obtain a copy of the License at  http://www.apache.org/licenses/LICENSE-2.0.  Unless required by applicable law or agreed to in writing, software distributed under the License is distributed on an 'AS IS' BASIS, WITHOUT WARRANTIES OR CONDITIONS OF ANY KIND, either express or implied. See the License for the specific language governing permissions and limitations under the License."
          }
        ],
        "identifier": [
          {
            "use": "official",
            "system": "http://mihin.org/fhir/sid/elementId",
            "value": "0e08ce69-610c-48b3-9a8b-632a5d1af429"
          }
        ],
        "clinicalStatus": {
          "coding": [
            {
              "system": "http://hl7.org/fhir/ValueSet/condition-clinical",
              "code": "active",
              "display": "Active"
            }
          ]
        },
        "verificationStatus": {
          "coding": [
            {
              "system": "http://hl7.org/fhir/ValueSet/condition-ver-status",
              "code": "confirmed",
              "display": "Confirmed"
            }
          ]
        },
        "category": [
          {
            "coding": [
              {
                "system": "http://hl7.org/fhir/ValueSet/condition-category",
                "code": "encounter-diagnosis",
                "display": "Encounter Diagnosis"
              }
            ]
          }
        ],
        "code": {
          "coding": [
            {
              "system": "http://snomed.info/sct",
              "code": "444814009",
              "display": "Viral sinusitis (disorder)"
            },
            {
              "system": "http://hl7.org/fhir/sid/icd-10",
              "code": "J01.90",
              "display": "Viral sinusitis (disorder)"
            }
          ]
        },
        "subject": {
          "reference": "Patient/37784",
          "display": "Troy Daryl Lozano Jr"
        },
        "encounter": {
          "reference": "Encounter/510689",
          "display": "Sinusitis [Doctor_Visit [Encounter]]"
        },
        "onsetDateTime": "2019-04-12T14:00:00+00:00",
        "recordedDate": "2019-04-12T14:00:00+00:00",
        "asserter": {
          "reference": "Practitioner/35297",
          "identifier": {
            "system": "http://hl7.org/fhir/sid/us-npi",
            "value": "9999999456"
          },
          "display": "Thelma Renee Montoya MD"
        }
      }
    },
    {
      "fullUrl": "https://gw.interop.community/Monroe4Saffron/data/Condition/813195",
      "resource": {
        "resourceType": "Condition",
        "id": "813195",
        "meta": {
          "versionId": "1",
          "lastUpdated": "2023-04-05T06:53:12+00:00",
          "source": "#QDxQx7z0de9rcdJf"
        },
        "text": {
          "status": "generated",
          "div": "<div xmlns=\"http://www.w3.org/1999/xhtml\">This is a simple narrative with only plain text</div>"
        },
        "extension": [
          {
            "url": "http://mihin.org/extension/copyright",
            "valueString": "Copyright 2014-2022 Michigan Health Information Network Shared Services. Licensed under the Apache License, Version 2.0 (the 'License'); you may not use this file except in compliance with the License. You may obtain a copy of the License at  http://www.apache.org/licenses/LICENSE-2.0.  Unless required by applicable law or agreed to in writing, software distributed under the License is distributed on an 'AS IS' BASIS, WITHOUT WARRANTIES OR CONDITIONS OF ANY KIND, either express or implied. See the License for the specific language governing permissions and limitations under the License."
          }
        ],
        "identifier": [
          {
            "use": "official",
            "system": "http://mihin.org/fhir/sid/elementId",
            "value": "3d16e32e-e063-4327-bbbd-c7f8c15b3d71"
          }
        ],
        "clinicalStatus": {
          "coding": [
            {
              "system": "http://hl7.org/fhir/ValueSet/condition-clinical",
              "code": "active",
              "display": "Active"
            }
          ]
        },
        "verificationStatus": {
          "coding": [
            {
              "system": "http://hl7.org/fhir/ValueSet/condition-ver-status",
              "code": "confirmed",
              "display": "Confirmed"
            }
          ]
        },
        "category": [
          {
            "coding": [
              {
                "system": "http://hl7.org/fhir/ValueSet/condition-category",
                "code": "encounter-diagnosis",
                "display": "Encounter Diagnosis"
              }
            ]
          }
        ],
        "code": {
          "coding": [
            {
              "system": "http://snomed.info/sct",
              "code": "248595008",
              "display": "Sputum finding (finding)"
            }
          ]
        },
        "subject": {
          "reference": "Patient/37784",
          "display": "Troy Daryl Lozano Jr"
        },
        "encounter": {
          "reference": "Encounter/813192",
          "display": "infection [Encounter for Test [Encounter]]"
        },
        "onsetDateTime": "2020-04-19T00:00:00+00:00",
        "recordedDate": "2020-04-19T00:00:00+00:00",
        "asserter": {
          "reference": "Practitioner/34617",
          "identifier": {
            "system": "http://hl7.org/fhir/sid/us-npi",
            "value": "9999999994"
          },
          "display": "Darren Riley Odom MD"
        }
      }
    },
    {
      "fullUrl": "https://gw.interop.community/Monroe4Saffron/data/Condition/88361",
      "resource": {
        "resourceType": "Condition",
        "id": "88361",
        "meta": {
          "versionId": "2",
          "lastUpdated": "2023-05-06T03:06:24+00:00",
          "source": "#uhhfy0JSBWETYSRI"
        },
        "text": {
          "status": "generated",
          "div": "<div xmlns=\"http://www.w3.org/1999/xhtml\">This is a simple narrative with only plain text</div>"
        },
        "extension": [
          {
            "url": "http://mihin.org/extension/copyright",
            "valueString": "Copyright 2014-2022 Michigan Health Information Network Shared Services. Licensed under the Apache License, Version 2.0 (the 'License'); you may not use this file except in compliance with the License. You may obtain a copy of the License at  http://www.apache.org/licenses/LICENSE-2.0.  Unless required by applicable law or agreed to in writing, software distributed under the License is distributed on an 'AS IS' BASIS, WITHOUT WARRANTIES OR CONDITIONS OF ANY KIND, either express or implied. See the License for the specific language governing permissions and limitations under the License."
          }
        ],
        "identifier": [
          {
            "use": "official",
            "system": "http://mihin.org/fhir/sid/elementId",
            "value": "c4e2b6c6-72f4-42b6-be6d-86e50b2e97e8"
          }
        ],
        "clinicalStatus": {
          "coding": [
            {
              "system": "http://terminology.hl7.org/CodeSystem/condition-clinical",
              "code": "active",
              "display": "Active"
            }
          ]
        },
        "verificationStatus": {
          "coding": [
            {
              "system": "http://terminology.hl7.org/CodeSystem/condition-ver-status",
              "code": "confirmed",
              "display": "Confirmed"
            }
          ]
        },
        "category": [
          {
            "coding": [
              {
                "system": "http://terminology.hl7.org/CodeSystem/condition-category",
                "code": "encounter-diagnosis",
                "display": "Encounter Diagnosis"
              }
            ]
          }
        ],
        "code": {
          "coding": [
            {
              "system": "http://snomed.info/sct",
              "code": "86849004",
              "display": "Suicidal deliberate poisoning"
            },
            {
              "system": "http://hl7.org/fhir/sid/icd-10",
              "code": "T50.902",
              "display": "Suicidal deliberate poisoning"
            }
          ]
        },
        "subject": {
          "reference": "Patient/37784",
          "display": "Troy Daryl Lozano Jr"
        },
        "encounter": {
          "reference": "Encounter/88359",
          "display": "Self Harm [ED_Visit_For_Attempted_Suicide [Encounter]]"
        },
        "onsetDateTime": "2017-01-08T00:00:00+00:00",
        "recordedDate": "2017-01-08T00:00:00+00:00",
        "asserter": {
          "reference": "Practitioner/34612",
          "display": "Irma Edith Bruce MD"
        }
      }
    },
    {
      "fullUrl": "https://gw.interop.community/Monroe4Saffron/data/Condition/813704",
      "resource": {
        "resourceType": "Condition",
        "id": "813704",
        "meta": {
          "versionId": "1",
          "lastUpdated": "2023-04-05T06:53:12+00:00",
          "source": "#QDxQx7z0de9rcdJf"
        },
        "text": {
          "status": "generated",
          "div": "<div xmlns=\"http://www.w3.org/1999/xhtml\">This is a simple narrative with only plain text</div>"
        },
        "extension": [
          {
            "url": "http://mihin.org/extension/copyright",
            "valueString": "Copyright 2014-2022 Michigan Health Information Network Shared Services. Licensed under the Apache License, Version 2.0 (the 'License'); you may not use this file except in compliance with the License. You may obtain a copy of the License at  http://www.apache.org/licenses/LICENSE-2.0.  Unless required by applicable law or agreed to in writing, software distributed under the License is distributed on an 'AS IS' BASIS, WITHOUT WARRANTIES OR CONDITIONS OF ANY KIND, either express or implied. See the License for the specific language governing permissions and limitations under the License."
          }
        ],
        "identifier": [
          {
            "use": "official",
            "system": "http://mihin.org/fhir/sid/elementId",
            "value": "b9cf78ee-5a6f-42dd-8722-6ac6ecc19044"
          }
        ],
        "clinicalStatus": {
          "coding": [
            {
              "system": "http://hl7.org/fhir/ValueSet/condition-clinical",
              "code": "active",
              "display": "Active"
            }
          ]
        },
        "verificationStatus": {
          "coding": [
            {
              "system": "http://hl7.org/fhir/ValueSet/condition-ver-status",
              "code": "confirmed",
              "display": "Confirmed"
            }
          ]
        },
        "category": [
          {
            "coding": [
              {
                "system": "http://hl7.org/fhir/ValueSet/condition-category",
                "code": "encounter-diagnosis",
                "display": "Encounter Diagnosis"
              }
            ]
          }
        ],
        "code": {
          "coding": [
            {
              "system": "http://snomed.info/sct",
              "code": "840544004",
              "display": "Suspected COVID-19"
            }
          ]
        },
        "subject": {
          "reference": "Patient/37784",
          "display": "Troy Daryl Lozano Jr"
        },
        "encounter": {
          "reference": "Encounter/813192",
          "display": "infection [Encounter for Test [Encounter]]"
        },
        "onsetDateTime": "2020-04-19T00:00:00+00:00",
        "recordedDate": "2020-04-19T00:00:00+00:00",
        "asserter": {
          "reference": "Practitioner/34617",
          "identifier": {
            "system": "http://hl7.org/fhir/sid/us-npi",
            "value": "9999999994"
          },
          "display": "Darren Riley Odom MD"
        }
      }
    },
    {
      "fullUrl": "https://gw.interop.community/Monroe4Saffron/data/Condition/639584",
      "resource": {
        "resourceType": "Condition",
        "id": "639584",
        "meta": {
          "versionId": "1",
          "lastUpdated": "2023-04-05T01:09:45+00:00",
          "source": "#fOVn1Lm6OlGpreWR"
        },
        "text": {
          "status": "generated",
          "div": "<div xmlns=\"http://www.w3.org/1999/xhtml\">This is a simple narrative with only plain text</div>"
        },
        "extension": [
          {
            "url": "http://mihin.org/extension/copyright",
            "valueString": "Copyright 2014-2022 Michigan Health Information Network Shared Services. Licensed under the Apache License, Version 2.0 (the 'License'); you may not use this file except in compliance with the License. You may obtain a copy of the License at  http://www.apache.org/licenses/LICENSE-2.0.  Unless required by applicable law or agreed to in writing, software distributed under the License is distributed on an 'AS IS' BASIS, WITHOUT WARRANTIES OR CONDITIONS OF ANY KIND, either express or implied. See the License for the specific language governing permissions and limitations under the License."
          }
        ],
        "identifier": [
          {
            "use": "official",
            "system": "http://mihin.org/fhir/sid/elementId",
            "value": "c418d798-6380-4d9a-bef7-bd5c0a9bf7c8"
          }
        ],
        "clinicalStatus": {
          "coding": [
            {
              "system": "http://hl7.org/fhir/ValueSet/condition-clinical",
              "code": "active",
              "display": "Active"
            }
          ]
        },
        "verificationStatus": {
          "coding": [
            {
              "system": "http://hl7.org/fhir/ValueSet/condition-ver-status",
              "code": "confirmed",
              "display": "Confirmed"
            }
          ]
        },
        "category": [
          {
            "coding": [
              {
                "system": "http://hl7.org/fhir/ValueSet/condition-category",
                "code": "encounter-diagnosis",
                "display": "Encounter Diagnosis"
              }
            ]
          }
        ],
        "code": {
          "coding": [
            {
              "system": "http://snomed.info/sct",
              "code": "40055000",
              "display": "Chronic sinusitis (disorder)"
            },
            {
              "system": "http://hl7.org/fhir/sid/icd-10",
              "code": "J32.9",
              "display": "Chronic sinusitis (disorder)"
            }
          ]
        },
        "subject": {
          "reference": "Patient/37784",
          "display": "Troy Daryl Lozano Jr"
        },
        "encounter": {
          "reference": "Encounter/639582",
          "display": "Sinusitis [Chronic_Sinusitis_Followup [Encounter]]"
        },
        "onsetDateTime": "2019-11-19T11:00:00+00:00",
        "recordedDate": "2019-11-19T11:00:00+00:00",
        "asserter": {
          "reference": "Practitioner/35297",
          "identifier": {
            "system": "http://hl7.org/fhir/sid/us-npi",
            "value": "9999999456"
          },
          "display": "Thelma Renee Montoya MD"
        }
      }
    },
    {
      "fullUrl": "https://gw.interop.community/Monroe4Saffron/data/Condition/813196",
      "resource": {
        "resourceType": "Condition",
        "id": "813196",
        "meta": {
          "versionId": "1",
          "lastUpdated": "2023-04-05T06:53:12+00:00",
          "source": "#QDxQx7z0de9rcdJf"
        },
        "text": {
          "status": "generated",
          "div": "<div xmlns=\"http://www.w3.org/1999/xhtml\">This is a simple narrative with only plain text</div>"
        },
        "extension": [
          {
            "url": "http://mihin.org/extension/copyright",
            "valueString": "Copyright 2014-2022 Michigan Health Information Network Shared Services. Licensed under the Apache License, Version 2.0 (the 'License'); you may not use this file except in compliance with the License. You may obtain a copy of the License at  http://www.apache.org/licenses/LICENSE-2.0.  Unless required by applicable law or agreed to in writing, software distributed under the License is distributed on an 'AS IS' BASIS, WITHOUT WARRANTIES OR CONDITIONS OF ANY KIND, either express or implied. See the License for the specific language governing permissions and limitations under the License."
          }
        ],
        "identifier": [
          {
            "use": "official",
            "system": "http://mihin.org/fhir/sid/elementId",
            "value": "e5e29d9d-1542-435d-b044-decc47e4a01d"
          }
        ],
        "clinicalStatus": {
          "coding": [
            {
              "system": "http://hl7.org/fhir/ValueSet/condition-clinical",
              "code": "active",
              "display": "Active"
            }
          ]
        },
        "verificationStatus": {
          "coding": [
            {
              "system": "http://hl7.org/fhir/ValueSet/condition-ver-status",
              "code": "confirmed",
              "display": "Confirmed"
            }
          ]
        },
        "category": [
          {
            "coding": [
              {
                "system": "http://hl7.org/fhir/ValueSet/condition-category",
                "code": "encounter-diagnosis",
                "display": "Encounter Diagnosis"
              }
            ]
          }
        ],
        "code": {
          "coding": [
            {
              "system": "http://snomed.info/sct",
              "code": "386661006",
              "display": "Fever (finding)"
            }
          ]
        },
        "subject": {
          "reference": "Patient/37784",
          "display": "Troy Daryl Lozano Jr"
        },
        "encounter": {
          "reference": "Encounter/813192",
          "display": "infection [Encounter for Test [Encounter]]"
        },
        "onsetDateTime": "2020-04-19T00:00:00+00:00",
        "recordedDate": "2020-04-19T00:00:00+00:00",
        "asserter": {
          "reference": "Practitioner/34617",
          "identifier": {
            "system": "http://hl7.org/fhir/sid/us-npi",
            "value": "9999999994"
          },
          "display": "Darren Riley Odom MD"
        }
      }
    },
    {
      "fullUrl": "https://gw.interop.community/Monroe4Saffron/data/Condition/813194",
      "resource": {
        "resourceType": "Condition",
        "id": "813194",
        "meta": {
          "versionId": "1",
          "lastUpdated": "2023-04-05T06:53:12+00:00",
          "source": "#QDxQx7z0de9rcdJf"
        },
        "text": {
          "status": "generated",
          "div": "<div xmlns=\"http://www.w3.org/1999/xhtml\">This is a simple narrative with only plain text</div>"
        },
        "extension": [
          {
            "url": "http://mihin.org/extension/copyright",
            "valueString": "Copyright 2014-2022 Michigan Health Information Network Shared Services. Licensed under the Apache License, Version 2.0 (the 'License'); you may not use this file except in compliance with the License. You may obtain a copy of the License at  http://www.apache.org/licenses/LICENSE-2.0.  Unless required by applicable law or agreed to in writing, software distributed under the License is distributed on an 'AS IS' BASIS, WITHOUT WARRANTIES OR CONDITIONS OF ANY KIND, either express or implied. See the License for the specific language governing permissions and limitations under the License."
          }
        ],
        "identifier": [
          {
            "use": "official",
            "system": "http://mihin.org/fhir/sid/elementId",
            "value": "8f0fe20a-503c-4554-8579-a197f208a4f4"
          }
        ],
        "clinicalStatus": {
          "coding": [
            {
              "system": "http://hl7.org/fhir/ValueSet/condition-clinical",
              "code": "active",
              "display": "Active"
            }
          ]
        },
        "verificationStatus": {
          "coding": [
            {
              "system": "http://hl7.org/fhir/ValueSet/condition-ver-status",
              "code": "confirmed",
              "display": "Confirmed"
            }
          ]
        },
        "category": [
          {
            "coding": [
              {
                "system": "http://hl7.org/fhir/ValueSet/condition-category",
                "code": "encounter-diagnosis",
                "display": "Encounter Diagnosis"
              }
            ]
          }
        ],
        "code": {
          "coding": [
            {
              "system": "http://snomed.info/sct",
              "code": "267102003",
              "display": "Sore throat symptom (finding)"
            }
          ]
        },
        "subject": {
          "reference": "Patient/37784",
          "display": "Troy Daryl Lozano Jr"
        },
        "encounter": {
          "reference": "Encounter/813192",
          "display": "infection [Encounter for Test [Encounter]]"
        },
        "onsetDateTime": "2020-04-19T00:00:00+00:00",
        "recordedDate": "2020-04-19T00:00:00+00:00",
        "asserter": {
          "reference": "Practitioner/34617",
          "identifier": {
            "system": "http://hl7.org/fhir/sid/us-npi",
            "value": "9999999994"
          },
          "display": "Darren Riley Odom MD"
        }
      }
    },
    {
      "fullUrl": "https://gw.interop.community/Monroe4Saffron/data/Condition/813197",
      "resource": {
        "resourceType": "Condition",
        "id": "813197",
        "meta": {
          "versionId": "1",
          "lastUpdated": "2023-04-05T06:53:12+00:00",
          "source": "#QDxQx7z0de9rcdJf"
        },
        "text": {
          "status": "generated",
          "div": "<div xmlns=\"http://www.w3.org/1999/xhtml\">This is a simple narrative with only plain text</div>"
        },
        "extension": [
          {
            "url": "http://mihin.org/extension/copyright",
            "valueString": "Copyright 2014-2022 Michigan Health Information Network Shared Services. Licensed under the Apache License, Version 2.0 (the 'License'); you may not use this file except in compliance with the License. You may obtain a copy of the License at  http://www.apache.org/licenses/LICENSE-2.0.  Unless required by applicable law or agreed to in writing, software distributed under the License is distributed on an 'AS IS' BASIS, WITHOUT WARRANTIES OR CONDITIONS OF ANY KIND, either express or implied. See the License for the specific language governing permissions and limitations under the License."
          }
        ],
        "identifier": [
          {
            "use": "official",
            "system": "http://mihin.org/fhir/sid/elementId",
            "value": "eb9d204b-b651-4359-a0c8-edc5b307699a"
          }
        ],
        "clinicalStatus": {
          "coding": [
            {
              "system": "http://hl7.org/fhir/ValueSet/condition-clinical",
              "code": "active",
              "display": "Active"
            }
          ]
        },
        "verificationStatus": {
          "coding": [
            {
              "system": "http://hl7.org/fhir/ValueSet/condition-ver-status",
              "code": "confirmed",
              "display": "Confirmed"
            }
          ]
        },
        "category": [
          {
            "coding": [
              {
                "system": "http://hl7.org/fhir/ValueSet/condition-category",
                "code": "encounter-diagnosis",
                "display": "Encounter Diagnosis"
              }
            ]
          }
        ],
        "code": {
          "coding": [
            {
              "system": "http://snomed.info/sct",
              "code": "36955009",
              "display": "Loss of taste (finding)"
            }
          ]
        },
        "subject": {
          "reference": "Patient/37784",
          "display": "Troy Daryl Lozano Jr"
        },
        "encounter": {
          "reference": "Encounter/813192",
          "display": "infection [Encounter for Test [Encounter]]"
        },
        "onsetDateTime": "2020-04-19T00:00:00+00:00",
        "recordedDate": "2020-04-19T00:00:00+00:00",
        "asserter": {
          "reference": "Practitioner/34617",
          "identifier": {
            "system": "http://hl7.org/fhir/sid/us-npi",
            "value": "9999999994"
          },
          "display": "Darren Riley Odom MD"
        }
      }
    },
    {
      "fullUrl": "https://gw.interop.community/Monroe4Saffron/data/MedicationRequest/639549",
      "resource": {
        "resourceType": "MedicationRequest",
        "id": "639549",
        "meta": {
          "versionId": "1",
          "lastUpdated": "2023-04-05T01:09:46+00:00",
          "source": "#jIXIyjsDb6rlIJ9B"
        },
        "text": {
          "status": "generated",
          "div": "<div xmlns=\"http://www.w3.org/1999/xhtml\">This is a simple narrative with only plain text</div>"
        },
        "extension": [
          {
            "url": "http://mihin.org/extension/copyright",
            "valueString": "Copyright 2014-2022 Michigan Health Information Network Shared Services. Licensed under the Apache License, Version 2.0 (the 'License'); you may not use this file except in compliance with the License. You may obtain a copy of the License at  http://www.apache.org/licenses/LICENSE-2.0.  Unless required by applicable law or agreed to in writing, software distributed under the License is distributed on an 'AS IS' BASIS, WITHOUT WARRANTIES OR CONDITIONS OF ANY KIND, either express or implied. See the License for the specific language governing permissions and limitations under the License."
          },
          {
            "url": "http://build.fhir.org/ig/HL7/davinci-crd/R4/ext-insurance.html",
            "valueReference": {
              "reference": "Coverage/566150",
              "display": "Troy Daryl Lozano Jr Coverage"
            }
          }
        ],
        "identifier": [
          {
            "use": "official",
            "system": "http://mihin.org/fhir/sid/elementId",
            "value": "3a974c45-1b47-41cc-83b1-0850fb0cf470"
          }
        ],
        "status": "active",
        "intent": "order",
        "medicationCodeableConcept": {
          "coding": [
            {
              "system": "http://www.nlm.nih.gov/research/umls/rxnorm",
              "code": "248656",
              "display": "Azithromycin 500 MG Oral Tablet"
            }
          ]
        },
        "subject": {
          "reference": "Patient/37784",
          "display": "Troy Daryl Lozano Jr"
        },
        "encounter": {
          "reference": "Encounter/639541",
          "display": "Chlamydia [Ambulatory_Encounter [Encounter]]"
        },
        "authoredOn": "2019-12-06T11:20:00+00:00",
        "requester": {
          "reference": "Practitioner/35845",
          "identifier": {
            "system": "http://hl7.org/fhir/sid/us-npi",
            "value": "9999999755"
          },
          "display": "Jacqueline Betty Tyler MD"
        },
        "reasonCode": [
          {
            "coding": [
              {
                "system": "http://snomed.info/sct",
                "code": "312099009",
                "display": "Genitourinary chlamydia infection (disorder)"
              }
            ]
          },
          {
            "coding": [
              {
                "system": "http://hl7.org/fhir/sid/icd-10",
                "code": "A56.2",
                "display": "Genitourinary chlamydia infection (disorder)"
              }
            ]
          }
        ],
        "insurance": [
          {
            "reference": "Coverage/566150",
            "display": "Troy Daryl Lozano Jr Coverage"
          }
        ],
        "dosageInstruction": [
          {
            "sequence": 1,
            "timing": {
              "repeat": {
                "frequency": 2,
                "period": 1,
                "periodUnit": "d"
              }
            },
            "asNeededBoolean": false,
            "doseAndRate": [
              {
                "doseQuantity": {
                  "value": 1
                }
              }
            ]
          }
        ],
        "dispenseRequest": {
          "validityPeriod": {
            "start": "2019-12-06T11:20:00+00:00",
            "end": "2019-12-06T11:20:00+00:00"
          }
        }
      }
    },
    {
      "fullUrl": "https://gw.interop.community/Monroe4Saffron/data/MedicationRequest/616939",
      "resource": {
        "resourceType": "MedicationRequest",
        "id": "616939",
        "meta": {
          "versionId": "1",
          "lastUpdated": "2023-04-05T00:21:22+00:00",
          "source": "#etxcNZE9kmlneXyS"
        },
        "text": {
          "status": "generated",
          "div": "<div xmlns=\"http://www.w3.org/1999/xhtml\">This is a simple narrative with only plain text</div>"
        },
        "extension": [
          {
            "url": "http://mihin.org/extension/copyright",
            "valueString": "Copyright 2014-2022 Michigan Health Information Network Shared Services. Licensed under the Apache License, Version 2.0 (the 'License'); you may not use this file except in compliance with the License. You may obtain a copy of the License at  http://www.apache.org/licenses/LICENSE-2.0.  Unless required by applicable law or agreed to in writing, software distributed under the License is distributed on an 'AS IS' BASIS, WITHOUT WARRANTIES OR CONDITIONS OF ANY KIND, either express or implied. See the License for the specific language governing permissions and limitations under the License."
          },
          {
            "url": "http://build.fhir.org/ig/HL7/davinci-crd/R4/ext-insurance.html",
            "valueReference": {
              "reference": "Coverage/566150",
              "display": "Troy Daryl Lozano Jr Coverage"
            }
          }
        ],
        "identifier": [
          {
            "use": "official",
            "system": "http://mihin.org/fhir/sid/elementId",
            "value": "983418d6-7634-4aab-9c23-dc5738f08a6f"
          }
        ],
        "status": "active",
        "intent": "order",
        "medicationCodeableConcept": {
          "coding": [
            {
              "system": "http://www.nlm.nih.gov/research/umls/rxnorm",
              "code": "313782",
              "display": "Acetaminophen 325 MG Oral Tablet"
            }
          ]
        },
        "subject": {
          "reference": "Patient/37784",
          "display": "Troy Daryl Lozano Jr"
        },
        "encounter": {
          "reference": "Encounter/616931",
          "display": "Bronchitis [Doctor_Visit [Encounter]]"
        },
        "authoredOn": "2019-10-20T18:15:00+00:00",
        "requester": {
          "reference": "Practitioner/35297",
          "identifier": {
            "system": "http://hl7.org/fhir/sid/us-npi",
            "value": "9999999456"
          },
          "display": "Thelma Renee Montoya MD"
        },
        "reasonCode": [
          {
            "coding": [
              {
                "system": "http://snomed.info/sct",
                "code": "10509002",
                "display": "Acute bronchitis (disorder)"
              }
            ]
          },
          {
            "coding": [
              {
                "system": "http://hl7.org/fhir/sid/icd-10",
                "code": "J20.9",
                "display": "Acute bronchitis (disorder)"
              }
            ]
          }
        ],
        "insurance": [
          {
            "reference": "Coverage/566150",
            "display": "Troy Daryl Lozano Jr Coverage"
          }
        ]
      }
    },
    {
      "fullUrl": "https://gw.interop.community/Monroe4Saffron/data/Condition/813714",
      "resource": {
        "resourceType": "Condition",
        "id": "813714",
        "meta": {
          "versionId": "1",
          "lastUpdated": "2023-04-05T06:53:12+00:00",
          "source": "#QDxQx7z0de9rcdJf"
        },
        "text": {
          "status": "generated",
          "div": "<div xmlns=\"http://www.w3.org/1999/xhtml\">This is a simple narrative with only plain text</div>"
        },
        "extension": [
          {
            "url": "http://mihin.org/extension/copyright",
            "valueString": "Copyright 2014-2022 Michigan Health Information Network Shared Services. Licensed under the Apache License, Version 2.0 (the 'License'); you may not use this file except in compliance with the License. You may obtain a copy of the License at  http://www.apache.org/licenses/LICENSE-2.0.  Unless required by applicable law or agreed to in writing, software distributed under the License is distributed on an 'AS IS' BASIS, WITHOUT WARRANTIES OR CONDITIONS OF ANY KIND, either express or implied. See the License for the specific language governing permissions and limitations under the License."
          }
        ],
        "identifier": [
          {
            "use": "official",
            "system": "http://mihin.org/fhir/sid/elementId",
            "value": "ac972150-5cc4-492e-8dcf-6becb848f34e"
          }
        ],
        "clinicalStatus": {
          "coding": [
            {
              "system": "http://hl7.org/fhir/ValueSet/condition-clinical",
              "code": "active",
              "display": "Active"
            }
          ]
        },
        "verificationStatus": {
          "coding": [
            {
              "system": "http://hl7.org/fhir/ValueSet/condition-ver-status",
              "code": "confirmed",
              "display": "Confirmed"
            }
          ]
        },
        "category": [
          {
            "coding": [
              {
                "system": "http://hl7.org/fhir/ValueSet/condition-category",
                "code": "encounter-diagnosis",
                "display": "Encounter Diagnosis"
              }
            ]
          }
        ],
        "code": {
          "coding": [
            {
              "system": "http://snomed.info/sct",
              "code": "840539006",
              "display": "COVID-19"
            }
          ]
        },
        "subject": {
          "reference": "Patient/37784",
          "display": "Troy Daryl Lozano Jr"
        },
        "encounter": {
          "reference": "Encounter/813192",
          "display": "infection [Encounter for Test [Encounter]]"
        },
        "onsetDateTime": "2020-04-19T01:33:00+00:00",
        "recordedDate": "2020-04-19T01:33:00+00:00",
        "asserter": {
          "reference": "Practitioner/34617",
          "identifier": {
            "system": "http://hl7.org/fhir/sid/us-npi",
            "value": "9999999994"
          },
          "display": "Darren Riley Odom MD"
        }
      }
    },
    {
      "fullUrl": "https://gw.interop.community/Monroe4Saffron/data/Practitioner/35845",
      "resource": {
        "resourceType": "Practitioner",
        "id": "35845",
        "meta": {
          "versionId": "2",
          "lastUpdated": "2023-05-06T04:34:15+00:00",
          "source": "#h35gcRlzEBJ5pk8l"
        },
        "text": {
          "status": "generated",
          "div": "<div xmlns=\"http://www.w3.org/1999/xhtml\">This is a simple narrative with only plain text</div>"
        },
        "extension": [
          {
            "url": "http://mihin.org/extension/copyright",
            "valueString": "Copyright 2014-2022 Michigan Health Information Network Shared Services. Licensed under the Apache License, Version 2.0 (the 'License'); you may not use this file except in compliance with the License. You may obtain a copy of the License at  http://www.apache.org/licenses/LICENSE-2.0.  Unless required by applicable law or agreed to in writing, software distributed under the License is distributed on an 'AS IS' BASIS, WITHOUT WARRANTIES OR CONDITIONS OF ANY KIND, either express or implied. See the License for the specific language governing permissions and limitations under the License."
          }
        ],
        "identifier": [
          {
            "use": "official",
            "type": {
              "coding": [
                {
                  "system": "http://terminology.hl7.org/CodeSystem/v2-0203",
                  "code": "SB",
                  "display": "Social Beneficiary Identifier"
                }
              ]
            },
            "system": "http://hl7.org/fhir/sid/us-ssn",
            "value": "000000755"
          },
          {
            "use": "official",
            "type": {
              "coding": [
                {
                  "system": "http://terminology.hl7.org/CodeSystem/v2-0203",
                  "code": "SB",
                  "display": "Social Beneficiary Identifier"
                }
              ]
            },
            "system": "http://mihin.org/fhir/cks",
            "value": "303bc7b371304ee79f16d1703ab8a70d"
          },
          {
            "use": "official",
            "type": {
              "coding": [
                {
                  "system": "http://terminology.hl7.org/CodeSystem/v2-0203",
                  "code": "PRN",
                  "display": "Provider number"
                }
              ]
            },
            "system": "http://terminology.hl7.org/CodeSystem/v2-0203",
            "value": "9999999755"
          }
        ],
        "active": true,
        "name": [
          {
            "use": "official",
            "family": "Tyler",
            "given": [
              "Jacqueline",
              "Betty"
            ],
            "suffix": [
              "MD"
            ]
          }
        ],
        "telecom": [
          {
            "system": "phone",
            "value": "269-555-8645",
            "use": "home"
          },
          {
            "system": "phone",
            "value": "269-555-7792",
            "use": "mobile"
          }
        ],
        "address": [
          {
            "use": "work",
            "type": "postal",
            "line": [
              "888 Peach Road"
            ],
            "city": "Milford",
            "district": "Monroe",
            "state": "Anywhere",
            "postalCode": "48380"
          }
        ],
        "gender": "female",
        "birthDate": "1956-09-21",
        "qualification": [
          {
            "identifier": [
              {
                "use": "official",
                "type": {
                  "coding": [
                    {
                      "system": "http://terminology.hl7.org/CodeSystem/v2-0203",
                      "code": "MD",
                      "display": "Medical License number"
                    }
                  ]
                },
                "system": "http://anywhere.gov/fhir/medical-license",
                "value": "LIC-755"
              }
            ],
            "code": {
              "coding": [
                {
                  "system": "http://terminology.hl7.org/CodeSystem/v2-0360",
                  "code": "MD",
                  "display": "Doctor of Medicine"
                }
              ]
            },
            "period": {
              "start": "2017-01-01T00:00:00+00:00",
              "end": "2022-12-31T00:00:00+00:00"
            },
            "issuer": {
              "reference": "Organization/32284",
              "display": "State Licensing Board"
            }
          }
        ]
      }
    },
    {
      "fullUrl": "https://gw.interop.community/Monroe4Saffron/data/Condition/616933",
      "resource": {
        "resourceType": "Condition",
        "id": "616933",
        "meta": {
          "versionId": "1",
          "lastUpdated": "2023-04-05T00:21:22+00:00",
          "source": "#etxcNZE9kmlneXyS"
        },
        "text": {
          "status": "generated",
          "div": "<div xmlns=\"http://www.w3.org/1999/xhtml\">This is a simple narrative with only plain text</div>"
        },
        "extension": [
          {
            "url": "http://mihin.org/extension/copyright",
            "valueString": "Copyright 2014-2022 Michigan Health Information Network Shared Services. Licensed under the Apache License, Version 2.0 (the 'License'); you may not use this file except in compliance with the License. You may obtain a copy of the License at  http://www.apache.org/licenses/LICENSE-2.0.  Unless required by applicable law or agreed to in writing, software distributed under the License is distributed on an 'AS IS' BASIS, WITHOUT WARRANTIES OR CONDITIONS OF ANY KIND, either express or implied. See the License for the specific language governing permissions and limitations under the License."
          }
        ],
        "identifier": [
          {
            "use": "official",
            "system": "http://mihin.org/fhir/sid/elementId",
            "value": "5c5cf64d-a51e-4519-b2e0-7d2e1b973657"
          }
        ],
        "clinicalStatus": {
          "coding": [
            {
              "system": "http://hl7.org/fhir/ValueSet/condition-clinical",
              "code": "active",
              "display": "Active"
            }
          ]
        },
        "verificationStatus": {
          "coding": [
            {
              "system": "http://hl7.org/fhir/ValueSet/condition-ver-status",
              "code": "confirmed",
              "display": "Confirmed"
            }
          ]
        },
        "category": [
          {
            "coding": [
              {
                "system": "http://hl7.org/fhir/ValueSet/condition-category",
                "code": "encounter-diagnosis",
                "display": "Encounter Diagnosis"
              }
            ]
          }
        ],
        "code": {
          "coding": [
            {
              "system": "http://snomed.info/sct",
              "code": "10509002",
              "display": "Acute bronchitis (disorder)"
            },
            {
              "system": "http://hl7.org/fhir/sid/icd-10",
              "code": "J20.9",
              "display": "Acute bronchitis (disorder)"
            }
          ]
        },
        "subject": {
          "reference": "Patient/37784",
          "display": "Troy Daryl Lozano Jr"
        },
        "encounter": {
          "reference": "Encounter/616931",
          "display": "Bronchitis [Doctor_Visit [Encounter]]"
        },
        "onsetDateTime": "2019-10-09T12:00:00+00:00",
        "recordedDate": "2019-10-09T12:00:00+00:00",
        "asserter": {
          "reference": "Practitioner/35297",
          "identifier": {
            "system": "http://hl7.org/fhir/sid/us-npi",
            "value": "9999999456"
          },
          "display": "Thelma Renee Montoya MD"
        }
      }
    },
    {
      "fullUrl": "https://gw.interop.community/Monroe4Saffron/data/Condition/639543",
      "resource": {
        "resourceType": "Condition",
        "id": "639543",
        "meta": {
          "versionId": "1",
          "lastUpdated": "2023-04-05T01:09:46+00:00",
          "source": "#jIXIyjsDb6rlIJ9B"
        },
        "text": {
          "status": "generated",
          "div": "<div xmlns=\"http://www.w3.org/1999/xhtml\">This is a simple narrative with only plain text</div>"
        },
        "extension": [
          {
            "url": "http://mihin.org/extension/copyright",
            "valueString": "Copyright 2014-2022 Michigan Health Information Network Shared Services. Licensed under the Apache License, Version 2.0 (the 'License'); you may not use this file except in compliance with the License. You may obtain a copy of the License at  http://www.apache.org/licenses/LICENSE-2.0.  Unless required by applicable law or agreed to in writing, software distributed under the License is distributed on an 'AS IS' BASIS, WITHOUT WARRANTIES OR CONDITIONS OF ANY KIND, either express or implied. See the License for the specific language governing permissions and limitations under the License."
          }
        ],
        "identifier": [
          {
            "use": "official",
            "system": "http://mihin.org/fhir/sid/elementId",
            "value": "c519bdf8-47bc-44da-a8d9-19c11c260baa"
          }
        ],
        "clinicalStatus": {
          "coding": [
            {
              "system": "http://hl7.org/fhir/ValueSet/condition-clinical",
              "code": "active",
              "display": "Active"
            }
          ]
        },
        "verificationStatus": {
          "coding": [
            {
              "system": "http://hl7.org/fhir/ValueSet/condition-ver-status",
              "code": "confirmed",
              "display": "Confirmed"
            }
          ]
        },
        "category": [
          {
            "coding": [
              {
                "system": "http://hl7.org/fhir/ValueSet/condition-category",
                "code": "encounter-diagnosis",
                "display": "Encounter Diagnosis"
              }
            ]
          }
        ],
        "code": {
          "coding": [
            {
              "system": "http://snomed.info/sct",
              "code": "312099009",
              "display": "Genitourinary chlamydia infection (disorder)"
            },
            {
              "system": "http://hl7.org/fhir/sid/icd-10",
              "code": "A56.2",
              "display": "Genitourinary chlamydia infection (disorder)"
            }
          ]
        },
        "subject": {
          "reference": "Patient/37784",
          "display": "Troy Daryl Lozano Jr"
        },
        "encounter": {
          "reference": "Encounter/639541",
          "display": "Chlamydia [Ambulatory_Encounter [Encounter]]"
        },
        "onsetDateTime": "2019-11-15T11:20:00+00:00",
        "recordedDate": "2019-11-15T11:20:00+00:00",
        "asserter": {
          "reference": "Practitioner/35845",
          "identifier": {
            "system": "http://hl7.org/fhir/sid/us-npi",
            "value": "9999999755"
          },
          "display": "Jacqueline Betty Tyler MD"
        }
      }
    },
    {
      "fullUrl": "https://gw.interop.community/Monroe4Saffron/data/Organization/32245",
      "resource": {
        "resourceType": "Organization",
        "id": "32245",
        "meta": {
          "versionId": "3",
          "lastUpdated": "2023-05-06T04:20:23+00:00",
          "source": "#Kwf6LXrj6eyrOabo"
        },
        "text": {
          "status": "generated",
          "div": "<div xmlns=\"http://www.w3.org/1999/xhtml\">This is a simple narrative with only plain text</div>"
        },
        "extension": [
          {
            "url": "http://mihin.org/extension/copyright",
            "valueString": "Copyright 2014-2022 Michigan Health Information Network Shared Services. Licensed under the Apache License, Version 2.0 (the 'License'); you may not use this file except in compliance with the License. You may obtain a copy of the License at  http://www.apache.org/licenses/LICENSE-2.0.  Unless required by applicable law or agreed to in writing, software distributed under the License is distributed on an 'AS IS' BASIS, WITHOUT WARRANTIES OR CONDITIONS OF ANY KIND, either express or implied. See the License for the specific language governing permissions and limitations under the License."
          }
        ],
        "identifier": [
          {
            "use": "official",
            "system": "http://www.hl7.org/oid/",
            "value": "1.2.3.4.5.9.99.999.9999.1263"
          },
          {
            "use": "official",
            "type": {
              "coding": [
                {
                  "system": "http://terminology.hl7.org/CodeSystem/v2-0203",
                  "code": "PRN",
                  "display": "Provider number"
                }
              ]
            },
            "system": "http://terminology.hl7.org/CodeSystem/v2-0203",
            "value": "8999991263"
          },
          {
            "use": "official",
            "type": {
              "coding": [
                {
                  "system": "http://terminology.hl7.org/CodeSystem/v2-0203",
                  "code": "TAX",
                  "display": "Tax ID number"
                }
              ]
            },
            "system": "http://terminology.hl7.org/CodeSystem/v2-0203",
            "value": "000001263"
          }
        ],
        "active": true,
        "type": [
          {
            "coding": [
              {
                "system": "http://terminology.hl7.org/CodeSystem/organization-type",
                "code": "prov",
                "display": "Healthcare Provider"
              }
            ]
          }
        ],
        "name": "Westland Westside Urgent Care Center",
        "telecom": [
          {
            "system": "phone",
            "value": "947-555-3007",
            "use": "work"
          }
        ],
        "address": [
          {
            "line": [
              "292 N Mississippi Court"
            ],
            "city": "Milford",
            "district": "Monroe",
            "state": "Anywhere",
            "postalCode": "48380"
          }
        ],
        "endpoint": [
          {
            "reference": "Endpoint/32596",
            "display": "Westland Westside Urgent Care Center"
          }
        ]
      }
    },
    {
      "fullUrl": "https://gw.interop.community/Monroe4Saffron/data/Encounter/500591",
      "resource": {
        "resourceType": "Encounter",
        "id": "500591",
        "meta": {
          "versionId": "1",
          "lastUpdated": "2023-04-04T19:55:52+00:00",
          "source": "#l34Xb5effpErTIPV"
        },
        "text": {
          "status": "generated",
          "div": "<div xmlns=\"http://www.w3.org/1999/xhtml\">This is a simple narrative with only plain text</div>"
        },
        "extension": [
          {
            "url": "http://mihin.org/extension/copyright",
            "valueString": "Copyright 2014-2022 Michigan Health Information Network Shared Services. Licensed under the Apache License, Version 2.0 (the 'License'); you may not use this file except in compliance with the License. You may obtain a copy of the License at  http://www.apache.org/licenses/LICENSE-2.0.  Unless required by applicable law or agreed to in writing, software distributed under the License is distributed on an 'AS IS' BASIS, WITHOUT WARRANTIES OR CONDITIONS OF ANY KIND, either express or implied. See the License for the specific language governing permissions and limitations under the License."
          }
        ],
        "identifier": [
          {
            "use": "official",
            "value": "863a18f2-453b-4280-bd49-47fbb8e72059"
          }
        ],
        "status": "finished",
        "class": {
          "system": "http://hl7.org/fhir/encounter-class",
          "code": "other",
          "display": "Dental"
        },
        "type": [
          {
            "coding": [
              {
                "system": "http://www.ama-assn.org/go/cpt",
                "code": "D0120",
                "display": "Periodic oral evaluation, established patient"
              }
            ]
          }
        ],
        "subject": {
          "reference": "Patient/37784",
          "display": "Troy Daryl Lozano Jr"
        },
        "participant": [
          {
            "type": [
              {
                "coding": [
                  {
                    "system": "http://hl7.org/fhir/v3/ParticipationType",
                    "code": "ATND",
                    "display": "attender"
                  }
                ]
              }
            ],
            "period": {
              "start": "2019-04-12T08:20:00+00:00",
              "end": "2019-04-12T08:40:00+00:00"
            },
            "individual": {
              "reference": "Practitioner/35845",
              "identifier": {
                "system": "http://hl7.org/fhir/sid/us-npi",
                "value": "9999999755"
              },
              "display": "Jacqueline Betty Tyler MD"
            }
          }
        ],
        "appointment": [
          {
            "reference": "Appointment/500590",
            "display": "Appointment-29359"
          }
        ],
        "period": {
          "start": "2019-04-12T08:20:00+00:00",
          "end": "2019-04-12T08:40:00+00:00"
        },
        "location": [
          {
            "location": {
              "reference": "Location/33848",
              "display": "Westland Westside Urgent Care Center"
            }
          }
        ],
        "serviceProvider": {
          "reference": "Organization/32245",
          "display": "Westland Westside Urgent Care Center"
        }
      }
    },
    {
      "fullUrl": "https://gw.interop.community/Monroe4Saffron/data/Immunization/2568161",
      "resource": {
        "resourceType": "Immunization",
        "id": "2568161",
        "meta": {
          "versionId": "1",
          "lastUpdated": "2023-04-07T07:00:08+00:00",
          "source": "#9l4InmExnyy6k9vo"
        },
        "text": {
          "status": "generated",
          "div": "<div xmlns=\"http://www.w3.org/1999/xhtml\">This is a simple narrative with only plain text</div>"
        },
        "extension": [
          {
            "url": "http://mihin.org/extension/copyright",
            "valueString": "Copyright 2014-2022 Michigan Health Information Network Shared Services. Licensed under the Apache License, Version 2.0 (the 'License'); you may not use this file except in compliance with the License. You may obtain a copy of the License at  http://www.apache.org/licenses/LICENSE-2.0.  Unless required by applicable law or agreed to in writing, software distributed under the License is distributed on an 'AS IS' BASIS, WITHOUT WARRANTIES OR CONDITIONS OF ANY KIND, either express or implied. See the License for the specific language governing permissions and limitations under the License."
          }
        ],
        "identifier": [
          {
            "use": "official",
            "system": "http://mihin.org/fhir/sid/elementId",
            "value": "87ba4d82-dbc6-4cd7-ab75-9b07c861c04b"
          }
        ],
        "status": "completed",
        "vaccineCode": {
          "coding": [
            {
              "system": "NDC",
              "code": "80777-0273-99",
              "display": "Moderna COVID-19 Vaccine"
            }
          ]
        },
        "patient": {
          "reference": "Patient/37784",
          "display": "Troy Daryl Lozano Jr"
        },
        "encounter": {
          "reference": "Encounter/2568159",
          "display": "Covid-19 Immunizations [Second_Moderna_Vaccination_Encounter [Encounter]]"
        },
        "recorded": "2021-04-19T13:00:00+00:00",
        "primarySource": true,
        "location": {
          "reference": "Location/33848",
          "display": "Westland Westside Urgent Care Center"
        },
        "performer": [
          {
            "actor": {
              "reference": "Practitioner/35845",
              "identifier": {
                "system": "http://hl7.org/fhir/sid/us-npi",
                "value": "9999999755"
              },
              "display": "Jacqueline Betty Tyler MD"
            }
          }
        ]
      }
    },
    {
      "fullUrl": "https://gw.interop.community/Monroe4Saffron/data/Location/33848",
      "resource": {
        "resourceType": "Location",
        "id": "33848",
        "meta": {
          "versionId": "2",
          "lastUpdated": "2023-05-06T04:21:51+00:00",
          "source": "#zG6M7yCVSANGv6Kn"
        },
        "text": {
          "status": "generated",
          "div": "<div xmlns=\"http://www.w3.org/1999/xhtml\">This is a simple narrative with only plain text</div>"
        },
        "extension": [
          {
            "url": "http://mihin.org/extension/copyright",
            "valueString": "Copyright 2014-2022 Michigan Health Information Network Shared Services. Licensed under the Apache License, Version 2.0 (the 'License'); you may not use this file except in compliance with the License. You may obtain a copy of the License at  http://www.apache.org/licenses/LICENSE-2.0.  Unless required by applicable law or agreed to in writing, software distributed under the License is distributed on an 'AS IS' BASIS, WITHOUT WARRANTIES OR CONDITIONS OF ANY KIND, either express or implied. See the License for the specific language governing permissions and limitations under the License."
          }
        ],
        "identifier": [
          {
            "use": "official",
            "system": "http://www.hl7.org/oid/",
            "value": "1.2.3.4.260"
          }
        ],
        "status": "active",
        "name": "Westland Westside Urgent Care Center",
        "mode": "instance",
        "type": [
          {
            "text": "Long Term Care Hospital"
          }
        ],
        "telecom": [
          {
            "system": "phone",
            "value": "(810) 555-2610",
            "use": "work"
          }
        ],
        "address": {
          "use": "work",
          "type": "physical",
          "line": [
            "292 N Mississippi Court"
          ],
          "city": "Milford",
          "district": "Monroe",
          "state": "Anywhere",
          "postalCode": "48380"
        },
        "physicalType": {
          "coding": [
            {
              "system": "http://terminology.hl7.org/CodeSystem/location-physical-type",
              "code": "bu",
              "display": "Building"
            }
          ]
        },
        "position": {
          "longitude": -83.59292833030015,
          "latitude": 42.58454856656609
        },
        "managingOrganization": {
          "reference": "Organization/32245",
          "display": "Westland Westside Urgent Care Center"
        },
        "endpoint": [
          {
            "reference": "Endpoint/32596",
            "display": "Westland Westside Urgent Care Center"
          }
        ]
      }
    },
    {
      "fullUrl": "https://gw.interop.community/Monroe4Saffron/data/Condition/298708",
      "resource": {
        "resourceType": "Condition",
        "id": "298708",
        "meta": {
          "versionId": "1",
          "lastUpdated": "2023-04-04T11:44:01+00:00",
          "source": "#gHPyo8GGoMYMGVIz"
        },
        "text": {
          "status": "generated",
          "div": "<div xmlns=\"http://www.w3.org/1999/xhtml\">This is a simple narrative with only plain text</div>"
        },
        "extension": [
          {
            "url": "http://mihin.org/extension/copyright",
            "valueString": "Copyright 2014-2022 Michigan Health Information Network Shared Services. Licensed under the Apache License, Version 2.0 (the 'License'); you may not use this file except in compliance with the License. You may obtain a copy of the License at  http://www.apache.org/licenses/LICENSE-2.0.  Unless required by applicable law or agreed to in writing, software distributed under the License is distributed on an 'AS IS' BASIS, WITHOUT WARRANTIES OR CONDITIONS OF ANY KIND, either express or implied. See the License for the specific language governing permissions and limitations under the License."
          }
        ],
        "identifier": [
          {
            "use": "official",
            "system": "http://mihin.org/fhir/sid/elementId",
            "value": "cfa6fca3-3677-4665-90f3-c94d6284103c"
          }
        ],
        "clinicalStatus": {
          "coding": [
            {
              "system": "http://hl7.org/fhir/ValueSet/condition-clinical",
              "code": "active",
              "display": "Active"
            }
          ]
        },
        "verificationStatus": {
          "coding": [
            {
              "system": "http://hl7.org/fhir/ValueSet/condition-ver-status",
              "code": "confirmed",
              "display": "Confirmed"
            }
          ]
        },
        "category": [
          {
            "coding": [
              {
                "system": "http://hl7.org/fhir/ValueSet/condition-category",
                "code": "encounter-diagnosis",
                "display": "Encounter Diagnosis"
              }
            ]
          }
        ],
        "code": {
          "coding": [
            {
              "system": "http://snomed.info/sct",
              "code": "sdohcc-sctt-41000243104",
              "display": "Severe food insecurity (finding)"
            }
          ]
        },
        "subject": {
          "reference": "Patient/37784",
          "display": "Troy Daryl Lozano Jr"
        },
        "encounter": {
          "reference": "Encounter/298696",
          "display": "Wellness Encounter created 2017/01/08 00:00 for 2018/04/18"
        },
        "onsetDateTime": "2018-04-18T09:40:00+00:00",
        "recordedDate": "2018-04-18T09:40:00+00:00",
        "asserter": {
          "reference": "Practitioner/35845",
          "identifier": {
            "system": "http://hl7.org/fhir/sid/us-npi",
            "value": "9999999755"
          },
          "display": "Jacqueline Betty Tyler MD"
        }
      }
    },
    {
      "fullUrl": "https://gw.interop.community/Monroe4Saffron/data/Immunization/2447547",
      "resource": {
        "resourceType": "Immunization",
        "id": "2447547",
        "meta": {
          "versionId": "1",
          "lastUpdated": "2023-04-07T04:07:22+00:00",
          "source": "#19MTKt7vSFZPi8Ca"
        },
        "text": {
          "status": "generated",
          "div": "<div xmlns=\"http://www.w3.org/1999/xhtml\">This is a simple narrative with only plain text</div>"
        },
        "extension": [
          {
            "url": "http://mihin.org/extension/copyright",
            "valueString": "Copyright 2014-2022 Michigan Health Information Network Shared Services. Licensed under the Apache License, Version 2.0 (the 'License'); you may not use this file except in compliance with the License. You may obtain a copy of the License at  http://www.apache.org/licenses/LICENSE-2.0.  Unless required by applicable law or agreed to in writing, software distributed under the License is distributed on an 'AS IS' BASIS, WITHOUT WARRANTIES OR CONDITIONS OF ANY KIND, either express or implied. See the License for the specific language governing permissions and limitations under the License."
          }
        ],
        "identifier": [
          {
            "use": "official",
            "system": "http://mihin.org/fhir/sid/elementId",
            "value": "161cf811-214a-41b6-8df8-9c89a2094665"
          }
        ],
        "status": "completed",
        "vaccineCode": {
          "coding": [
            {
              "system": "NDC",
              "code": "80777-0273-99",
              "display": "Moderna COVID-19 Vaccine"
            }
          ]
        },
        "patient": {
          "reference": "Patient/37784",
          "display": "Troy Daryl Lozano Jr"
        },
        "encounter": {
          "reference": "Encounter/2447545",
          "display": "Covid-19 Immunizations [Vaccination_Encounter [Encounter]]"
        },
        "recorded": "2021-03-26T13:20:00+00:00",
        "primarySource": true,
        "location": {
          "reference": "Location/33848",
          "display": "Westland Westside Urgent Care Center"
        },
        "performer": [
          {
            "actor": {
              "reference": "Practitioner/35845",
              "identifier": {
                "system": "http://hl7.org/fhir/sid/us-npi",
                "value": "9999999755"
              },
              "display": "Jacqueline Betty Tyler MD"
            }
          }
        ]
      }
    }
  ]
}