{
  "resourceType": "Bundle",
  "id": "39bcc20c-85c5-41ba-b080-560aef1190ae",
  "meta": {
    "versionId": "1",
    "lastUpdated": "2023-05-06T16:07:36.35+00:00",
    "profile": [
      "http://hl7.org/fhir/us/ecr/StructureDefinition/eicr-document-bundle"
    ]
  },
  "identifier": {
    "system": "http://example.com/identifier",
    "value": "Sample Value"
  },
  "type": "document",
  "timestamp": "2023-05-06T16:07:28.025+00:00",
  "entry": [
    {
      "resource": {
        "resourceType": "Composition",
        "id": "b448f0fa-ed22-4708-9447-fd8f8b813b98",
        "extension": [
          {
            "url": "http://hl7.org/fhir/StructureDefinition/composition-clinicaldocument-versionNumber",
            "valueString": "1"
          }
        ],
        "identifier": {
          "value": "b448f0fa-ed22-4708-9447-fd8f8b813b98"
        },
        "status": "final",
        "type": {
          "coding": [
            {
              "system": "http://loinc.org",
              "code": "55751-2",
              "display": "Public Health Case Report"
            }
          ],
          "text": "Public Health Case Report"
        },
        "subject": {
          "reference": "https://gw.interop.community/Harrison4Saffron/data/Patient/25675"
        },
        "encounter": {
          "reference": "https://gw.interop.community/Harrison4Saffron/data/Encounter/1983230"
        },
        "date": "2023-05-06T16:07:28+00:00",
        "author": [
          {
            "reference": "https://gw.interop.community/Harrison4Saffron/data/Practitioner/19584"
          }
        ],
        "title": "Public Health Case Report",
        "custodian": {
          "reference": "https://gw.interop.community/Harrison4Saffron/data/Organization/17151"
        },
        "section": [
          {
            "code": {
              "coding": [
                {
                  "system": "http://loinc.org",
                  "code": "46239-0",
                  "display": "Chief complaint+Reason for visit Narrative"
                }
              ],
              "text": "Chief complaint+Reason for visit Narrative"
            }
          },
          {
            "code": {
              "coding": [
                {
                  "system": "http://loinc.org",
                  "code": "10164-2",
                  "display": "History of Present illness Narrative"
                }
              ],
              "text": "History of Present illness Narrative"
            }
          },
          {
            "code": {
              "coding": [
                {
                  "system": "http://loinc.org",
                  "code": "10187-3",
                  "display": "Review of Systems narrative"
                }
              ],
              "text": "Review of Systems narrative"
            }
          },
          {
            "code": {
              "coding": [
                {
                  "system": "http://loinc.org",
                  "code": "11450-4",
                  "display": "Problem Section Narrative"
                }
              ],
              "text": "Problem Section Narrative"
            },
            "entry": [
              {
                "reference": "https://gw.interop.community/Harrison4Saffron/data/Condition/847936"
              },
              {
                "reference": "https://gw.interop.community/Harrison4Saffron/data/Condition/459204"
              },
              {
                "reference": "https://gw.interop.community/Harrison4Saffron/data/Condition/847929"
              },
              {
                "reference": "https://gw.interop.community/Harrison4Saffron/data/Condition/847928"
              },
              {
                "extension": [
                  {
                    "extension": [
                      {
                        "url": "triggerCodeValueSet",
                        "valueString": "http://ersd.aimsplatform.org/fhir/ValueSet/dxtc"
                      },
                      {
                        "url": "triggerCodeValueSetVersion",
                        "valueString": "2022-10-19"
                      },
                      {
                        "url": "triggerCode",
                        "valueCoding": {
                          "system": "http://snomed.info/sct",
                          "code": "840539006"
                        }
                      }
                    ],
                    "url": "http://hl7.org/fhir/us/ecr/StructureDefinition/eicr-trigger-code-flag-extension"
                  }
                ],
                "reference": "https://gw.interop.community/Harrison4Saffron/data/Condition/848003"
              },
              {
                "reference": "https://gw.interop.community/Harrison4Saffron/data/Condition/64269"
              },
              {
                "reference": "https://gw.interop.community/Harrison4Saffron/data/Condition/459214"
              }
            ]
          },
          {
            "code": {
              "coding": [
                {
                  "system": "http://loinc.org",
                  "code": "11348-0",
                  "display": "Past Medical History Narrative"
                }
              ],
              "text": "Past Medical History Narrative"
            }
          },
          {
            "code": {
              "coding": [
                {
                  "system": "http://loinc.org",
                  "code": "29549-3",
                  "display": "Medications Administered Narrative"
                }
              ],
              "text": "Medications Administered Narrative"
            },
            "entry": [
              {
                "reference": "https://gw.interop.community/Harrison4Saffron/data/MedicationAdministration/64276"
              },
              {
                "reference": "https://gw.interop.community/Harrison4Saffron/data/MedicationAdministration/679680"
              },
              {
                "reference": "https://gw.interop.community/Harrison4Saffron/data/MedicationAdministration/459036"
              },
              {
                "reference": "https://gw.interop.community/Harrison4Saffron/data/MedicationAdministration/1983277"
              }
            ]
          },
          {
            "code": {
              "coding": [
                {
                  "system": "http://loinc.org",
                  "code": "30954-2",
                  "display": "Results Section Narrative"
                }
              ],
              "text": "Results Section Narrative"
            }
          },
          {
            "code": {
              "coding": [
                {
                  "system": "http://loinc.org",
                  "code": "18776-5",
                  "display": "Plan of Treatment Narrative"
                }
              ],
              "text": "Plan of Treatment Narrative"
            },
            "entry": [
              {
                "reference": "https://gw.interop.community/Harrison4Saffron/data/MedicationRequest/1983276"
              },
              {
                "reference": "https://gw.interop.community/Harrison4Saffron/data/MedicationRequest/448021"
              },
              {
                "reference": "https://gw.interop.community/Harrison4Saffron/data/MedicationRequest/679679"
              },
              {
                "reference": "https://gw.interop.community/Harrison4Saffron/data/MedicationRequest/64275"
              },
              {
                "reference": "https://gw.interop.community/Harrison4Saffron/data/MedicationRequest/459035"
              }
            ]
          },
          {
            "code": {
              "coding": [
                {
                  "system": "http://loinc.org",
                  "code": "11369-6",
                  "display": "Immunizations Narrative"
                }
              ],
              "text": "Immunizations Narrative"
            },
            "entry": [
              {
                "reference": "https://gw.interop.community/Harrison4Saffron/data/Immunization/459041"
              },
              {
                "reference": "https://gw.interop.community/Harrison4Saffron/data/Immunization/2133334"
              },
              {
                "reference": "https://gw.interop.community/Harrison4Saffron/data/Immunization/2160610"
              },
              {
                "reference": "https://gw.interop.community/Harrison4Saffron/data/Immunization/459040"
              },
              {
                "reference": "https://gw.interop.community/Harrison4Saffron/data/Immunization/2430730"
              },
              {
                "reference": "https://gw.interop.community/Harrison4Saffron/data/Immunization/85555"
              },
              {
                "reference": "https://gw.interop.community/Harrison4Saffron/data/Immunization/85556"
              }
            ]
          },
          {
            "code": {
              "coding": [
                {
                  "system": "http://loinc.org",
                  "code": "47519-4",
                  "display": "Procedure Section Narrative"
                }
              ],
              "text": "Procedure Section Narrative"
            }
          },
          {
            "code": {
              "coding": [
                {
                  "system": "http://loinc.org",
                  "code": "8716-3",
                  "display": "Vital Signs Narrative"
                }
              ],
              "text": "Vital Signs Narrative"
            },
            "entry": [
              {
                "reference": "https://gw.interop.community/Harrison4Saffron/data/Observation/64274"
              },
              {
                "reference": "https://gw.interop.community/Harrison4Saffron/data/Observation/64270"
              },
              {
                "reference": "https://gw.interop.community/Harrison4Saffron/data/Observation/64249"
              }
            ]
          },
          {
            "code": {
              "coding": [
                {
                  "system": "http://loinc.org",
                  "code": "29762-2",
                  "display": "Social History Narrative"
                }
              ],
              "text": "Social History Narrative"
            }
          },
          {
            "code": {
              "coding": [
                {
                  "system": "http://loinc.org",
                  "code": "90767-5",
                  "display": "Pregnancy Section Narrative"
                }
              ],
              "text": "Pregnancy Section Narrative"
            }
          },
          {
            "code": {
              "coding": [
                {
                  "system": "http://loinc.org",
                  "code": "83910-0",
                  "display": "Emergency Outbreak Section Narrative"
                }
              ],
              "text": "Emergency Outbreak Section Narrative"
            }
          }
        ]
      }
    },
    {
      "fullUrl": "https://gw.interop.community/Harrison4Saffron/data/Immunization/2133334",
      "resource": {
        "resourceType": "Immunization",
        "id": "2133334",
        "meta": {
          "versionId": "1",
          "lastUpdated": "2023-04-06T16:36:11+00:00",
          "source": "#GzA3WC1d1MuLqK8A"
        },
        "text": {
          "status": "generated",
          "div": "<div xmlns=\"http://www.w3.org/1999/xhtml\">This is a simple narrative with only plain text</div>"
        },
        "extension": [
          {
            "url": "http://mihin.org/extension/copyright",
            "valueString": "Copyright 2014-2022 Michigan Health Information Network Shared Services. Licensed under the Apache License, Version 2.0 (the 'License'); you may not use this file except in compliance with the License. You may obtain a copy of the License at  http://www.apache.org/licenses/LICENSE-2.0.  Unless required by applicable law or agreed to in writing, software distributed under the License is distributed on an 'AS IS' BASIS, WITHOUT WARRANTIES OR CONDITIONS OF ANY KIND, either express or implied. See the License for the specific language governing permissions and limitations under the License."
          }
        ],
        "identifier": [
          {
            "use": "official",
            "system": "http://mihin.org/fhir/sid/elementId",
            "value": "8b774d6f-65d1-4dae-aa62-2166c41949fd"
          }
        ],
        "status": "completed",
        "vaccineCode": {
          "coding": [
            {
              "system": "http://hl7.org/fhir/sid/cvx",
              "code": "140",
              "display": "Influenza, seasonal, injectable, preservative free"
            }
          ]
        },
        "patient": {
          "reference": "Patient/25675",
          "display": "Charlene Kay Buchanan"
        },
        "encounter": {
          "reference": "Encounter/2133332",
          "display": "Wellness Encounter created 2019/03/10 00:00 for 2021/02/26"
        },
        "recorded": "2021-02-25T15:00:00+00:00",
        "primarySource": true,
        "location": {
          "reference": "Location/18850",
          "display": "Global Southside Urgent Care Center"
        },
        "performer": [
          {
            "actor": {
              "reference": "Practitioner/20865",
              "identifier": {
                "system": "http://hl7.org/fhir/sid/us-npi",
                "value": "9999999774"
              },
              "display": "Aaron Floyd Andrade MD"
            }
          }
        ]
      }
    },
    {
      "fullUrl": "https://gw.interop.community/Harrison4Saffron/data/Immunization/459040",
      "resource": {
        "resourceType": "Immunization",
        "id": "459040",
        "meta": {
          "versionId": "1",
          "lastUpdated": "2023-04-04T15:51:44+00:00",
          "source": "#wwTwHppmpDMvRT4l"
        },
        "text": {
          "status": "generated",
          "div": "<div xmlns=\"http://www.w3.org/1999/xhtml\">This is a simple narrative with only plain text</div>"
        },
        "extension": [
          {
            "url": "http://mihin.org/extension/copyright",
            "valueString": "Copyright 2014-2022 Michigan Health Information Network Shared Services. Licensed under the Apache License, Version 2.0 (the 'License'); you may not use this file except in compliance with the License. You may obtain a copy of the License at  http://www.apache.org/licenses/LICENSE-2.0.  Unless required by applicable law or agreed to in writing, software distributed under the License is distributed on an 'AS IS' BASIS, WITHOUT WARRANTIES OR CONDITIONS OF ANY KIND, either express or implied. See the License for the specific language governing permissions and limitations under the License."
          }
        ],
        "identifier": [
          {
            "use": "official",
            "system": "http://mihin.org/fhir/sid/elementId",
            "value": "fc8efff0-65c1-4ad4-9abd-9be3778eeeb4"
          }
        ],
        "status": "completed",
        "vaccineCode": {
          "coding": [
            {
              "system": "http://hl7.org/fhir/sid/cvx",
              "code": "140",
              "display": "Influenza, seasonal, injectable, preservative free"
            }
          ]
        },
        "patient": {
          "reference": "Patient/25675",
          "display": "Charlene Kay Buchanan"
        },
        "encounter": {
          "reference": "Encounter/458949",
          "display": "Wellness Encounter created 2017/03/12 00:00 for 2019/03/02"
        },
        "recorded": "2019-02-27T13:20:00+00:00",
        "primarySource": true,
        "location": {
          "reference": "Location/18850",
          "display": "Global Southside Urgent Care Center"
        },
        "performer": [
          {
            "actor": {
              "reference": "Practitioner/20865",
              "identifier": {
                "system": "http://hl7.org/fhir/sid/us-npi",
                "value": "9999999774"
              },
              "display": "Aaron Floyd Andrade MD"
            }
          }
        ]
      }
    },
    {
      "fullUrl": "https://gw.interop.community/Harrison4Saffron/data/Observation/64274",
      "resource": {
        "resourceType": "Observation",
        "id": "64274",
        "meta": {
          "versionId": "2",
          "lastUpdated": "2023-05-06T04:19:34+00:00",
          "source": "#42jxAjX8pVU5Yqq8"
        },
        "text": {
          "status": "generated",
          "div": "<div xmlns=\"http://www.w3.org/1999/xhtml\">This is a simple narrative with only plain text</div>"
        },
        "extension": [
          {
            "url": "http://mihin.org/extension/copyright",
            "valueString": "Copyright 2014-2022 Michigan Health Information Network Shared Services. Licensed under the Apache License, Version 2.0 (the 'License'); you may not use this file except in compliance with the License. You may obtain a copy of the License at  http://www.apache.org/licenses/LICENSE-2.0.  Unless required by applicable law or agreed to in writing, software distributed under the License is distributed on an 'AS IS' BASIS, WITHOUT WARRANTIES OR CONDITIONS OF ANY KIND, either express or implied. See the License for the specific language governing permissions and limitations under the License."
          }
        ],
        "identifier": [
          {
            "use": "official",
            "system": "http://mihin.org/fhir/sid/elementId",
            "value": "6d5f2e4d-1fa6-45be-9bfe-58d7a7fc85ff"
          }
        ],
        "status": "final",
        "category": [
          {
            "coding": [
              {
                "system": "http://terminology.hl7.org/CodeSystem/observation-category",
                "code": "vital-signs",
                "display": "Vital Signs"
              }
            ]
          }
        ],
        "code": {
          "coding": [
            {
              "system": "http://loinc.org",
              "code": "72514-3",
              "display": "Pain severity - 0-10 verbal numeric rating [Score] - Reported"
            }
          ]
        },
        "subject": {
          "reference": "Patient/25675",
          "display": "Charlene Kay Buchanan"
        },
        "encounter": {
          "reference": "Encounter/64267",
          "display": "Fibromyalgia [Fibromyalgia_Diagnosis [Encounter]]"
        },
        "effectiveDateTime": "2017-01-18T08:00:00+00:00",
        "performer": [
          {
            "reference": "Practitioner/20217",
            "identifier": {
              "system": "http://terminology.hl7.org/CodeSystem/v2-0203",
              "value": "9999999400"
            },
            "display": "Matthew Roberson MacIas MD"
          }
        ],
        "valueQuantity": {
          "value": 6.0,
          "unit": "{score}"
        }
      }
    },
    {
      "fullUrl": "https://gw.interop.community/Harrison4Saffron/data/MedicationAdministration/679680",
      "resource": {
        "resourceType": "MedicationAdministration",
        "id": "679680",
        "meta": {
          "versionId": "1",
          "lastUpdated": "2023-04-04T22:49:10+00:00",
          "source": "#ytnzIDD3HjL93Yrc"
        },
        "text": {
          "status": "generated",
          "div": "<div xmlns=\"http://www.w3.org/1999/xhtml\">This is a simple narrative with only plain text</div>"
        },
        "extension": [
          {
            "url": "http://mihin.org/extension/copyright",
            "valueString": "Copyright 2014-2022 Michigan Health Information Network Shared Services. Licensed under the Apache License, Version 2.0 (the 'License'); you may not use this file except in compliance with the License. You may obtain a copy of the License at  http://www.apache.org/licenses/LICENSE-2.0.  Unless required by applicable law or agreed to in writing, software distributed under the License is distributed on an 'AS IS' BASIS, WITHOUT WARRANTIES OR CONDITIONS OF ANY KIND, either express or implied. See the License for the specific language governing permissions and limitations under the License."
          }
        ],
        "status": "completed",
        "medicationCodeableConcept": {
          "coding": [
            {
              "system": "http://www.nlm.nih.gov/research/umls/rxnorm",
              "code": "1367439",
              "display": "NuvaRing 0.12/0.015 MG per 24HR 21 Day Vaginal Ring"
            }
          ]
        },
        "subject": {
          "reference": "Patient/25675",
          "display": "Charlene Kay Buchanan"
        },
        "context": {
          "reference": "Encounter/679676",
          "display": "Vaginal Ring Contraceptive [Ring_Contraceptive_Consultation [Encounter]]"
        },
        "effectiveDateTime": "2020-03-24T15:00:00+00:00",
        "performer": [
          {
            "actor": {
              "reference": "Practitioner/20865",
              "identifier": {
                "system": "http://hl7.org/fhir/sid/us-npi",
                "value": "9999999774"
              },
              "display": "Aaron Floyd Andrade MD"
            }
          }
        ],
        "request": {
          "reference": "MedicationRequest/679679",
          "display": "Vaginal Ring Contraceptive [Prescribe_Nuvaring [MedicationOrder]]"
        }
      }
    },
    {
      "fullUrl": "https://gw.interop.community/Harrison4Saffron/data/Immunization/2430730",
      "resource": {
        "resourceType": "Immunization",
        "id": "2430730",
        "meta": {
          "versionId": "1",
          "lastUpdated": "2023-04-07T00:47:07+00:00",
          "source": "#tbZ300p2wNpsdA1O"
        },
        "text": {
          "status": "generated",
          "div": "<div xmlns=\"http://www.w3.org/1999/xhtml\">This is a simple narrative with only plain text</div>"
        },
        "extension": [
          {
            "url": "http://mihin.org/extension/copyright",
            "valueString": "Copyright 2014-2022 Michigan Health Information Network Shared Services. Licensed under the Apache License, Version 2.0 (the 'License'); you may not use this file except in compliance with the License. You may obtain a copy of the License at  http://www.apache.org/licenses/LICENSE-2.0.  Unless required by applicable law or agreed to in writing, software distributed under the License is distributed on an 'AS IS' BASIS, WITHOUT WARRANTIES OR CONDITIONS OF ANY KIND, either express or implied. See the License for the specific language governing permissions and limitations under the License."
          }
        ],
        "identifier": [
          {
            "use": "official",
            "system": "http://mihin.org/fhir/sid/elementId",
            "value": "c7c41331-344c-49da-8b68-a0017e51bb94"
          }
        ],
        "status": "completed",
        "vaccineCode": {
          "coding": [
            {
              "system": "NDC",
              "code": "00310-1222-15",
              "display": "ASTRAZENECA COVID-19 VACCINE"
            }
          ]
        },
        "patient": {
          "reference": "Patient/25675",
          "display": "Charlene Kay Buchanan"
        },
        "encounter": {
          "reference": "Encounter/2430728",
          "display": "Covid-19 Immunizations [Second_AstraZeneca_Vaccination_Encounter [Encounter]]"
        },
        "recorded": "2021-06-01T10:40:00+00:00",
        "primarySource": true,
        "location": {
          "reference": "Location/18850",
          "display": "Global Southside Urgent Care Center"
        },
        "performer": [
          {
            "actor": {
              "reference": "Practitioner/20865",
              "identifier": {
                "system": "http://hl7.org/fhir/sid/us-npi",
                "value": "9999999774"
              },
              "display": "Aaron Floyd Andrade MD"
            }
          }
        ]
      }
    },
    {
      "fullUrl": "https://gw.interop.community/Harrison4Saffron/data/MedicationAdministration/459036",
      "resource": {
        "resourceType": "MedicationAdministration",
        "id": "459036",
        "meta": {
          "versionId": "1",
          "lastUpdated": "2023-04-04T15:51:43+00:00",
          "source": "#O5qCWGatKBNpvDBQ"
        },
        "text": {
          "status": "generated",
          "div": "<div xmlns=\"http://www.w3.org/1999/xhtml\">This is a simple narrative with only plain text</div>"
        },
        "extension": [
          {
            "url": "http://mihin.org/extension/copyright",
            "valueString": "Copyright 2014-2022 Michigan Health Information Network Shared Services. Licensed under the Apache License, Version 2.0 (the 'License'); you may not use this file except in compliance with the License. You may obtain a copy of the License at  http://www.apache.org/licenses/LICENSE-2.0.  Unless required by applicable law or agreed to in writing, software distributed under the License is distributed on an 'AS IS' BASIS, WITHOUT WARRANTIES OR CONDITIONS OF ANY KIND, either express or implied. See the License for the specific language governing permissions and limitations under the License."
          }
        ],
        "status": "completed",
        "medicationCodeableConcept": {
          "coding": [
            {
              "system": "http://www.nlm.nih.gov/research/umls/rxnorm",
              "code": "748856",
              "display": "Yaz 28 Day Pack"
            }
          ]
        },
        "subject": {
          "reference": "Patient/25675",
          "display": "Charlene Kay Buchanan"
        },
        "context": {
          "reference": "Encounter/459032",
          "display": "Oral Contraceptive [Encounter_For_Oral_Contraceptive [Encounter]]"
        },
        "effectiveDateTime": "2019-03-13T11:54:00+00:00",
        "performer": [
          {
            "actor": {
              "reference": "Practitioner/20865",
              "identifier": {
                "system": "http://hl7.org/fhir/sid/us-npi",
                "value": "9999999774"
              },
              "display": "Aaron Floyd Andrade MD"
            }
          }
        ],
        "request": {
          "reference": "MedicationRequest/459035",
          "display": "Oral Contraceptive [Prescribe_Yaz [MedicationOrder]]"
        }
      }
    },
    {
      "fullUrl": "https://gw.interop.community/Harrison4Saffron/data/Practitioner/19584",
      "resource": {
        "resourceType": "Practitioner",
        "id": "19584",
        "meta": {
          "versionId": "2",
          "lastUpdated": "2023-05-06T04:32:44+00:00",
          "source": "#ulWGe4M0lVQEpi7Y"
        },
        "text": {
          "status": "generated",
          "div": "<div xmlns=\"http://www.w3.org/1999/xhtml\">This is a simple narrative with only plain text</div>"
        },
        "extension": [
          {
            "url": "http://mihin.org/extension/copyright",
            "valueString": "Copyright 2014-2022 Michigan Health Information Network Shared Services. Licensed under the Apache License, Version 2.0 (the 'License'); you may not use this file except in compliance with the License. You may obtain a copy of the License at  http://www.apache.org/licenses/LICENSE-2.0.  Unless required by applicable law or agreed to in writing, software distributed under the License is distributed on an 'AS IS' BASIS, WITHOUT WARRANTIES OR CONDITIONS OF ANY KIND, either express or implied. See the License for the specific language governing permissions and limitations under the License."
          }
        ],
        "identifier": [
          {
            "use": "official",
            "type": {
              "coding": [
                {
                  "system": "http://terminology.hl7.org/CodeSystem/v2-0203",
                  "code": "SB",
                  "display": "Social Beneficiary Identifier"
                }
              ]
            },
            "system": "http://hl7.org/fhir/sid/us-ssn",
            "value": "000000144"
          },
          {
            "use": "official",
            "type": {
              "coding": [
                {
                  "system": "http://terminology.hl7.org/CodeSystem/v2-0203",
                  "code": "SB",
                  "display": "Social Beneficiary Identifier"
                }
              ]
            },
            "system": "http://mihin.org/fhir/cks",
            "value": "795abac083194233abd82ef60adbae9a"
          },
          {
            "use": "official",
            "type": {
              "coding": [
                {
                  "system": "http://terminology.hl7.org/CodeSystem/v2-0203",
                  "code": "PRN",
                  "display": "Provider number"
                }
              ]
            },
            "system": "http://terminology.hl7.org/CodeSystem/v2-0203",
            "value": "9999999144"
          }
        ],
        "active": true,
        "name": [
          {
            "use": "official",
            "family": "Baker",
            "given": [
              "Stacy",
              "Lydia"
            ],
            "suffix": [
              "MD"
            ]
          }
        ],
        "telecom": [
          {
            "system": "phone",
            "value": "269-555-8420",
            "use": "home"
          },
          {
            "system": "phone",
            "value": "269-555-5135",
            "use": "mobile"
          }
        ],
        "address": [
          {
            "use": "work",
            "type": "postal",
            "line": [
              "210 N Lake Street"
            ],
            "city": "Grand Rapids",
            "district": "Harrison",
            "state": "Anywhere",
            "postalCode": "49525"
          }
        ],
        "gender": "female",
        "birthDate": "1985-02-27",
        "qualification": [
          {
            "identifier": [
              {
                "use": "official",
                "type": {
                  "coding": [
                    {
                      "system": "http://terminology.hl7.org/CodeSystem/v2-0203",
                      "code": "MD",
                      "display": "Medical License number"
                    }
                  ]
                },
                "system": "http://anywhere.gov/fhir/medical-license",
                "value": "LIC-144"
              }
            ],
            "code": {
              "coding": [
                {
                  "system": "http://terminology.hl7.org/CodeSystem/v2-0360",
                  "code": "MD",
                  "display": "Doctor of Medicine"
                }
              ]
            },
            "period": {
              "start": "2017-01-01T00:00:00+00:00",
              "end": "2022-12-31T00:00:00+00:00"
            },
            "issuer": {
              "reference": "Organization/17081",
              "display": "State Licensing Board"
            }
          }
        ]
      }
    },
    {
      "fullUrl": "https://gw.interop.community/Harrison4Saffron/data/Immunization/85555",
      "resource": {
        "resourceType": "Immunization",
        "id": "85555",
        "meta": {
          "versionId": "1",
          "lastUpdated": "2023-04-04T03:29:07+00:00",
          "source": "#joJiPoM1z6p2D1U4"
        },
        "text": {
          "status": "generated",
          "div": "<div xmlns=\"http://www.w3.org/1999/xhtml\">This is a simple narrative with only plain text</div>"
        },
        "extension": [
          {
            "url": "http://mihin.org/extension/copyright",
            "valueString": "Copyright 2014-2022 Michigan Health Information Network Shared Services. Licensed under the Apache License, Version 2.0 (the 'License'); you may not use this file except in compliance with the License. You may obtain a copy of the License at  http://www.apache.org/licenses/LICENSE-2.0.  Unless required by applicable law or agreed to in writing, software distributed under the License is distributed on an 'AS IS' BASIS, WITHOUT WARRANTIES OR CONDITIONS OF ANY KIND, either express or implied. See the License for the specific language governing permissions and limitations under the License."
          }
        ],
        "identifier": [
          {
            "use": "official",
            "system": "http://mihin.org/fhir/sid/elementId",
            "value": "a4f1cf5d-e2a3-452c-bf1f-1f9b1cba8375"
          }
        ],
        "status": "completed",
        "vaccineCode": {
          "coding": [
            {
              "system": "http://hl7.org/fhir/sid/cvx",
              "code": "140",
              "display": "Influenza, seasonal, injectable, preservative free"
            }
          ]
        },
        "patient": {
          "reference": "Patient/25675",
          "display": "Charlene Kay Buchanan"
        },
        "encounter": {
          "reference": "Encounter/85553",
          "display": "Wellness Encounter created 2017/01/08 00:00 for 2017/02/28"
        },
        "recorded": "2017-03-02T15:40:00+00:00",
        "primarySource": true,
        "location": {
          "reference": "Location/18850",
          "display": "Global Southside Urgent Care Center"
        },
        "performer": [
          {
            "actor": {
              "reference": "Practitioner/20865",
              "identifier": {
                "system": "http://hl7.org/fhir/sid/us-npi",
                "value": "9999999774"
              },
              "display": "Aaron Floyd Andrade MD"
            }
          }
        ]
      }
    },
    {
      "fullUrl": "https://gw.interop.community/Harrison4Saffron/data/Immunization/85556",
      "resource": {
        "resourceType": "Immunization",
        "id": "85556",
        "meta": {
          "versionId": "1",
          "lastUpdated": "2023-04-04T03:29:07+00:00",
          "source": "#joJiPoM1z6p2D1U4"
        },
        "text": {
          "status": "generated",
          "div": "<div xmlns=\"http://www.w3.org/1999/xhtml\">This is a simple narrative with only plain text</div>"
        },
        "extension": [
          {
            "url": "http://mihin.org/extension/copyright",
            "valueString": "Copyright 2014-2022 Michigan Health Information Network Shared Services. Licensed under the Apache License, Version 2.0 (the 'License'); you may not use this file except in compliance with the License. You may obtain a copy of the License at  http://www.apache.org/licenses/LICENSE-2.0.  Unless required by applicable law or agreed to in writing, software distributed under the License is distributed on an 'AS IS' BASIS, WITHOUT WARRANTIES OR CONDITIONS OF ANY KIND, either express or implied. See the License for the specific language governing permissions and limitations under the License."
          }
        ],
        "identifier": [
          {
            "use": "official",
            "system": "http://mihin.org/fhir/sid/elementId",
            "value": "93b50ed6-48ba-4ce2-a450-e66a74a3edf7"
          }
        ],
        "status": "completed",
        "vaccineCode": {
          "coding": [
            {
              "system": "http://hl7.org/fhir/sid/cvx",
              "code": "113",
              "display": "Td (adult) preservative free"
            }
          ]
        },
        "patient": {
          "reference": "Patient/25675",
          "display": "Charlene Kay Buchanan"
        },
        "encounter": {
          "reference": "Encounter/85553",
          "display": "Wellness Encounter created 2017/01/08 00:00 for 2017/02/28"
        },
        "recorded": "2017-03-02T15:40:00+00:00",
        "primarySource": true,
        "location": {
          "reference": "Location/18850",
          "display": "Global Southside Urgent Care Center"
        },
        "performer": [
          {
            "actor": {
              "reference": "Practitioner/20865",
              "identifier": {
                "system": "http://hl7.org/fhir/sid/us-npi",
                "value": "9999999774"
              },
              "display": "Aaron Floyd Andrade MD"
            }
          }
        ]
      }
    },
    {
      "fullUrl": "https://gw.interop.community/Harrison4Saffron/data/Immunization/459041",
      "resource": {
        "resourceType": "Immunization",
        "id": "459041",
        "meta": {
          "versionId": "1",
          "lastUpdated": "2023-04-04T15:51:44+00:00",
          "source": "#wwTwHppmpDMvRT4l"
        },
        "text": {
          "status": "generated",
          "div": "<div xmlns=\"http://www.w3.org/1999/xhtml\">This is a simple narrative with only plain text</div>"
        },
        "extension": [
          {
            "url": "http://mihin.org/extension/copyright",
            "valueString": "Copyright 2014-2022 Michigan Health Information Network Shared Services. Licensed under the Apache License, Version 2.0 (the 'License'); you may not use this file except in compliance with the License. You may obtain a copy of the License at  http://www.apache.org/licenses/LICENSE-2.0.  Unless required by applicable law or agreed to in writing, software distributed under the License is distributed on an 'AS IS' BASIS, WITHOUT WARRANTIES OR CONDITIONS OF ANY KIND, either express or implied. See the License for the specific language governing permissions and limitations under the License."
          }
        ],
        "identifier": [
          {
            "use": "official",
            "system": "http://mihin.org/fhir/sid/elementId",
            "value": "02f74316-e0c2-437c-9df4-96396442b1e3"
          }
        ],
        "status": "completed",
        "vaccineCode": {
          "coding": [
            {
              "system": "http://hl7.org/fhir/sid/cvx",
              "code": "113",
              "display": "Td (adult) preservative free"
            }
          ]
        },
        "patient": {
          "reference": "Patient/25675",
          "display": "Charlene Kay Buchanan"
        },
        "encounter": {
          "reference": "Encounter/458949",
          "display": "Wellness Encounter created 2017/03/12 00:00 for 2019/03/02"
        },
        "recorded": "2019-02-27T13:20:00+00:00",
        "primarySource": true,
        "location": {
          "reference": "Location/18850",
          "display": "Global Southside Urgent Care Center"
        },
        "performer": [
          {
            "actor": {
              "reference": "Practitioner/20865",
              "identifier": {
                "system": "http://hl7.org/fhir/sid/us-npi",
                "value": "9999999774"
              },
              "display": "Aaron Floyd Andrade MD"
            }
          }
        ]
      }
    },
    {
      "fullUrl": "https://gw.interop.community/Harrison4Saffron/data/Condition/847936",
      "resource": {
        "resourceType": "Condition",
        "id": "847936",
        "meta": {
          "versionId": "1",
          "lastUpdated": "2023-04-05T03:31:29+00:00",
          "source": "#1pTTNPA2tmqOXWqN"
        },
        "text": {
          "status": "generated",
          "div": "<div xmlns=\"http://www.w3.org/1999/xhtml\">This is a simple narrative with only plain text</div>"
        },
        "extension": [
          {
            "url": "http://mihin.org/extension/copyright",
            "valueString": "Copyright 2014-2022 Michigan Health Information Network Shared Services. Licensed under the Apache License, Version 2.0 (the 'License'); you may not use this file except in compliance with the License. You may obtain a copy of the License at  http://www.apache.org/licenses/LICENSE-2.0.  Unless required by applicable law or agreed to in writing, software distributed under the License is distributed on an 'AS IS' BASIS, WITHOUT WARRANTIES OR CONDITIONS OF ANY KIND, either express or implied. See the License for the specific language governing permissions and limitations under the License."
          }
        ],
        "identifier": [
          {
            "use": "official",
            "system": "http://mihin.org/fhir/sid/elementId",
            "value": "b31701ce-ef93-467b-9d9f-6ba2aa560841"
          }
        ],
        "clinicalStatus": {
          "coding": [
            {
              "system": "http://hl7.org/fhir/ValueSet/condition-clinical",
              "code": "active",
              "display": "Active"
            }
          ]
        },
        "verificationStatus": {
          "coding": [
            {
              "system": "http://hl7.org/fhir/ValueSet/condition-ver-status",
              "code": "confirmed",
              "display": "Confirmed"
            }
          ]
        },
        "category": [
          {
            "coding": [
              {
                "system": "http://hl7.org/fhir/ValueSet/condition-category",
                "code": "encounter-diagnosis",
                "display": "Encounter Diagnosis"
              }
            ]
          }
        ],
        "code": {
          "coding": [
            {
              "system": "http://snomed.info/sct",
              "code": "840544004",
              "display": "Suspected COVID-19"
            }
          ]
        },
        "subject": {
          "reference": "Patient/25675",
          "display": "Charlene Kay Buchanan"
        },
        "encounter": {
          "reference": "Encounter/847978",
          "display": "infection [Encounter for Test [Encounter]]"
        },
        "onsetDateTime": "2020-04-19T00:00:00+00:00",
        "recordedDate": "2020-04-19T00:00:00+00:00",
        "asserter": {
          "reference": "Practitioner/19639",
          "identifier": {
            "system": "http://hl7.org/fhir/sid/us-npi",
            "value": "9999999141"
          },
          "display": "Annette Wong McBride MD"
        }
      }
    },
    {
      "fullUrl": "https://gw.interop.community/Harrison4Saffron/data/Organization/17151",
      "resource": {
        "resourceType": "Organization",
        "id": "17151",
        "meta": {
          "versionId": "3",
          "lastUpdated": "2023-05-06T04:21:27+00:00",
          "source": "#yjaJ5GhMvVd0q59q"
        },
        "text": {
          "status": "generated",
          "div": "<div xmlns=\"http://www.w3.org/1999/xhtml\">This is a simple narrative with only plain text</div>"
        },
        "extension": [
          {
            "url": "http://mihin.org/extension/copyright",
            "valueString": "Copyright 2014-2022 Michigan Health Information Network Shared Services. Licensed under the Apache License, Version 2.0 (the 'License'); you may not use this file except in compliance with the License. You may obtain a copy of the License at  http://www.apache.org/licenses/LICENSE-2.0.  Unless required by applicable law or agreed to in writing, software distributed under the License is distributed on an 'AS IS' BASIS, WITHOUT WARRANTIES OR CONDITIONS OF ANY KIND, either express or implied. See the License for the specific language governing permissions and limitations under the License."
          }
        ],
        "identifier": [
          {
            "use": "official",
            "system": "http://www.hl7.org/oid/",
            "value": "1.2.3.4.5.9.99.999.9999.1240"
          },
          {
            "use": "official",
            "type": {
              "coding": [
                {
                  "system": "http://terminology.hl7.org/CodeSystem/v2-0203",
                  "code": "PRN",
                  "display": "Provider number"
                }
              ]
            },
            "system": "http://terminology.hl7.org/CodeSystem/v2-0203",
            "value": "8999991240"
          },
          {
            "use": "official",
            "type": {
              "coding": [
                {
                  "system": "http://terminology.hl7.org/CodeSystem/v2-0203",
                  "code": "TAX",
                  "display": "Tax ID number"
                }
              ]
            },
            "system": "http://terminology.hl7.org/CodeSystem/v2-0203",
            "value": "000001240"
          }
        ],
        "active": true,
        "name": "St. Michael's Hospital",
        "telecom": [
          {
            "system": "phone",
            "value": "616-555-2473",
            "use": "work"
          }
        ],
        "address": [
          {
            "line": [
              "55 N Maple Drive"
            ],
            "city": "Grand Rapids",
            "district": "Harrison",
            "state": "Anywhere",
            "postalCode": "49507"
          }
        ],
        "endpoint": [
          {
            "reference": "Endpoint/17478",
            "display": "St. Michael's Hospital"
          }
        ]
      }
    },
    {
      "fullUrl": "https://gw.interop.community/Harrison4Saffron/data/Condition/847928",
      "resource": {
        "resourceType": "Condition",
        "id": "847928",
        "meta": {
          "versionId": "1",
          "lastUpdated": "2023-04-05T03:31:29+00:00",
          "source": "#1pTTNPA2tmqOXWqN"
        },
        "text": {
          "status": "generated",
          "div": "<div xmlns=\"http://www.w3.org/1999/xhtml\">This is a simple narrative with only plain text</div>"
        },
        "extension": [
          {
            "url": "http://mihin.org/extension/copyright",
            "valueString": "Copyright 2014-2022 Michigan Health Information Network Shared Services. Licensed under the Apache License, Version 2.0 (the 'License'); you may not use this file except in compliance with the License. You may obtain a copy of the License at  http://www.apache.org/licenses/LICENSE-2.0.  Unless required by applicable law or agreed to in writing, software distributed under the License is distributed on an 'AS IS' BASIS, WITHOUT WARRANTIES OR CONDITIONS OF ANY KIND, either express or implied. See the License for the specific language governing permissions and limitations under the License."
          }
        ],
        "identifier": [
          {
            "use": "official",
            "system": "http://mihin.org/fhir/sid/elementId",
            "value": "ec50fc41-5d79-410c-8b8a-ab5b46f99794"
          }
        ],
        "clinicalStatus": {
          "coding": [
            {
              "system": "http://hl7.org/fhir/ValueSet/condition-clinical",
              "code": "active",
              "display": "Active"
            }
          ]
        },
        "verificationStatus": {
          "coding": [
            {
              "system": "http://hl7.org/fhir/ValueSet/condition-ver-status",
              "code": "confirmed",
              "display": "Confirmed"
            }
          ]
        },
        "category": [
          {
            "coding": [
              {
                "system": "http://hl7.org/fhir/ValueSet/condition-category",
                "code": "encounter-diagnosis",
                "display": "Encounter Diagnosis"
              }
            ]
          }
        ],
        "code": {
          "coding": [
            {
              "system": "http://snomed.info/sct",
              "code": "267102003",
              "display": "Sore throat symptom (finding)"
            }
          ]
        },
        "subject": {
          "reference": "Patient/25675",
          "display": "Charlene Kay Buchanan"
        },
        "encounter": {
          "reference": "Encounter/847978",
          "display": "infection [Encounter for Test [Encounter]]"
        },
        "onsetDateTime": "2020-04-19T00:00:00+00:00",
        "recordedDate": "2020-04-19T00:00:00+00:00",
        "asserter": {
          "reference": "Practitioner/19639",
          "identifier": {
            "system": "http://hl7.org/fhir/sid/us-npi",
            "value": "9999999141"
          },
          "display": "Annette Wong McBride MD"
        }
      }
    },
    {
      "fullUrl": "https://gw.interop.community/Harrison4Saffron/data/Condition/459214",
      "resource": {
        "resourceType": "Condition",
        "id": "459214",
        "meta": {
          "versionId": "1",
          "lastUpdated": "2023-04-04T15:51:44+00:00",
          "source": "#wwTwHppmpDMvRT4l"
        },
        "text": {
          "status": "generated",
          "div": "<div xmlns=\"http://www.w3.org/1999/xhtml\">This is a simple narrative with only plain text</div>"
        },
        "extension": [
          {
            "url": "http://mihin.org/extension/copyright",
            "valueString": "Copyright 2014-2022 Michigan Health Information Network Shared Services. Licensed under the Apache License, Version 2.0 (the 'License'); you may not use this file except in compliance with the License. You may obtain a copy of the License at  http://www.apache.org/licenses/LICENSE-2.0.  Unless required by applicable law or agreed to in writing, software distributed under the License is distributed on an 'AS IS' BASIS, WITHOUT WARRANTIES OR CONDITIONS OF ANY KIND, either express or implied. See the License for the specific language governing permissions and limitations under the License."
          }
        ],
        "identifier": [
          {
            "use": "official",
            "system": "http://mihin.org/fhir/sid/elementId",
            "value": "9aa23fe4-8509-4a08-a798-451803885a19"
          }
        ],
        "clinicalStatus": {
          "coding": [
            {
              "system": "http://hl7.org/fhir/ValueSet/condition-clinical",
              "code": "active",
              "display": "Active"
            }
          ]
        },
        "verificationStatus": {
          "coding": [
            {
              "system": "http://hl7.org/fhir/ValueSet/condition-ver-status",
              "code": "confirmed",
              "display": "Confirmed"
            }
          ]
        },
        "category": [
          {
            "coding": [
              {
                "system": "http://hl7.org/fhir/ValueSet/condition-category",
                "code": "encounter-diagnosis",
                "display": "Encounter Diagnosis"
              }
            ]
          }
        ],
        "code": {
          "coding": [
            {
              "system": "http://snomed.info/sct",
              "code": "161641009",
              "display": "At risk of diabetes mellitus (finding)"
            }
          ]
        },
        "subject": {
          "reference": "Patient/25675",
          "display": "Charlene Kay Buchanan"
        },
        "encounter": {
          "reference": "Encounter/458949",
          "display": "Wellness Encounter created 2017/03/12 00:00 for 2019/03/02"
        },
        "onsetDateTime": "2019-02-27T13:49:00+00:00",
        "recordedDate": "2019-02-27T13:49:00+00:00",
        "asserter": {
          "reference": "Practitioner/20865",
          "identifier": {
            "system": "http://hl7.org/fhir/sid/us-npi",
            "value": "9999999774"
          },
          "display": "Aaron Floyd Andrade MD"
        }
      }
    },
    {
      "fullUrl": "https://gw.interop.community/Harrison4Saffron/data/MedicationRequest/64275",
      "resource": {
        "resourceType": "MedicationRequest",
        "id": "64275",
        "meta": {
          "versionId": "1",
          "lastUpdated": "2023-04-04T02:48:02+00:00",
          "source": "#jtvhi4SW3PX1qRJe"
        },
        "text": {
          "status": "generated",
          "div": "<div xmlns=\"http://www.w3.org/1999/xhtml\">This is a simple narrative with only plain text</div>"
        },
        "extension": [
          {
            "url": "http://mihin.org/extension/copyright",
            "valueString": "Copyright 2014-2022 Michigan Health Information Network Shared Services. Licensed under the Apache License, Version 2.0 (the 'License'); you may not use this file except in compliance with the License. You may obtain a copy of the License at  http://www.apache.org/licenses/LICENSE-2.0.  Unless required by applicable law or agreed to in writing, software distributed under the License is distributed on an 'AS IS' BASIS, WITHOUT WARRANTIES OR CONDITIONS OF ANY KIND, either express or implied. See the License for the specific language governing permissions and limitations under the License."
          },
          {
            "url": "http://build.fhir.org/ig/HL7/davinci-crd/R4/ext-insurance.html",
            "valueReference": {
              "reference": "Coverage/32169",
              "display": "Charlene Kay Buchanan Coverage"
            }
          }
        ],
        "identifier": [
          {
            "use": "official",
            "system": "http://mihin.org/fhir/sid/elementId",
            "value": "2484888a-0797-4892-bbc8-dd5b625ed621"
          }
        ],
        "status": "active",
        "intent": "order",
        "medicationCodeableConcept": {
          "coding": [
            {
              "system": "http://www.nlm.nih.gov/research/umls/rxnorm",
              "code": "198014",
              "display": "Naproxen 500 MG Oral Tablet"
            }
          ]
        },
        "subject": {
          "reference": "Patient/25675",
          "display": "Charlene Kay Buchanan"
        },
        "encounter": {
          "reference": "Encounter/64267",
          "display": "Fibromyalgia [Fibromyalgia_Diagnosis [Encounter]]"
        },
        "authoredOn": "2017-01-18T08:00:00+00:00",
        "requester": {
          "reference": "Practitioner/20217",
          "identifier": {
            "system": "http://hl7.org/fhir/sid/us-npi",
            "value": "9999999400"
          },
          "display": "Matthew Roberson MacIas MD"
        },
        "reasonCode": [
          {
            "coding": [
              {
                "system": "http://snomed.info/sct",
                "code": "95417003",
                "display": "Primary fibromyalgia syndrome"
              }
            ]
          },
          {
            "coding": [
              {
                "system": "http://hl7.org/fhir/sid/icd-10",
                "code": "M79.7",
                "display": "Primary fibromyalgia syndrome"
              }
            ]
          }
        ],
        "insurance": [
          {
            "reference": "Coverage/32169",
            "display": "Charlene Kay Buchanan Coverage"
          }
        ]
      }
    },
    {
      "fullUrl": "https://gw.interop.community/Harrison4Saffron/data/MedicationAdministration/1983277",
      "resource": {
        "resourceType": "MedicationAdministration",
        "id": "1983277",
        "meta": {
          "versionId": "1",
          "lastUpdated": "2023-04-06T12:27:11+00:00",
          "source": "#RzkYeLltX3mhrP1Q"
        },
        "text": {
          "status": "generated",
          "div": "<div xmlns=\"http://www.w3.org/1999/xhtml\">This is a simple narrative with only plain text</div>"
        },
        "extension": [
          {
            "url": "http://mihin.org/extension/copyright",
            "valueString": "Copyright 2014-2022 Michigan Health Information Network Shared Services. Licensed under the Apache License, Version 2.0 (the 'License'); you may not use this file except in compliance with the License. You may obtain a copy of the License at  http://www.apache.org/licenses/LICENSE-2.0.  Unless required by applicable law or agreed to in writing, software distributed under the License is distributed on an 'AS IS' BASIS, WITHOUT WARRANTIES OR CONDITIONS OF ANY KIND, either express or implied. See the License for the specific language governing permissions and limitations under the License."
          }
        ],
        "status": "completed",
        "medicationCodeableConcept": {
          "coding": [
            {
              "system": "http://www.nlm.nih.gov/research/umls/rxnorm",
              "code": "596926",
              "display": "duloxetine 20 MG Delayed Release Oral Capsule"
            }
          ]
        },
        "subject": {
          "reference": "Patient/25675",
          "display": "Charlene Kay Buchanan"
        },
        "context": {
          "reference": "Encounter/1983230",
          "display": "Fibromyalgia [Fibromyalgia_Episode [Encounter]]"
        },
        "effectiveDateTime": "2021-01-24T00:00:00+00:00",
        "performer": [
          {
            "actor": {
              "reference": "Practitioner/19584",
              "identifier": {
                "system": "http://hl7.org/fhir/sid/us-npi",
                "value": "9999999144"
              },
              "display": "Stacy Lydia Baker MD"
            }
          }
        ],
        "reasonCode": [
          {
            "coding": [
              {
                "system": "http://snomed.info/sct",
                "code": "95417003",
                "display": "Primary fibromyalgia syndrome"
              }
            ]
          },
          {
            "coding": [
              {
                "system": "http://hl7.org/fhir/sid/icd-10",
                "code": "M79.7",
                "display": "Primary fibromyalgia syndrome"
              }
            ]
          }
        ],
        "request": {
          "reference": "MedicationRequest/1983276",
          "display": "Fibromyalgia [Prescribe_Cymbalta [MedicationOrder]]"
        }
      }
    },
    {
      "fullUrl": "https://gw.interop.community/Harrison4Saffron/data/Condition/459204",
      "resource": {
        "resourceType": "Condition",
        "id": "459204",
        "meta": {
          "versionId": "1",
          "lastUpdated": "2023-04-04T15:51:44+00:00",
          "source": "#wwTwHppmpDMvRT4l"
        },
        "text": {
          "status": "generated",
          "div": "<div xmlns=\"http://www.w3.org/1999/xhtml\">This is a simple narrative with only plain text</div>"
        },
        "extension": [
          {
            "url": "http://mihin.org/extension/copyright",
            "valueString": "Copyright 2014-2022 Michigan Health Information Network Shared Services. Licensed under the Apache License, Version 2.0 (the 'License'); you may not use this file except in compliance with the License. You may obtain a copy of the License at  http://www.apache.org/licenses/LICENSE-2.0.  Unless required by applicable law or agreed to in writing, software distributed under the License is distributed on an 'AS IS' BASIS, WITHOUT WARRANTIES OR CONDITIONS OF ANY KIND, either express or implied. See the License for the specific language governing permissions and limitations under the License."
          }
        ],
        "identifier": [
          {
            "use": "official",
            "system": "http://mihin.org/fhir/sid/elementId",
            "value": "f460439d-1e03-4f37-a8d1-edae63539b37"
          }
        ],
        "clinicalStatus": {
          "coding": [
            {
              "system": "http://hl7.org/fhir/ValueSet/condition-clinical",
              "code": "active",
              "display": "Active"
            }
          ]
        },
        "verificationStatus": {
          "coding": [
            {
              "system": "http://hl7.org/fhir/ValueSet/condition-ver-status",
              "code": "confirmed",
              "display": "Confirmed"
            }
          ]
        },
        "category": [
          {
            "coding": [
              {
                "system": "http://hl7.org/fhir/ValueSet/condition-category",
                "code": "encounter-diagnosis",
                "display": "Encounter Diagnosis"
              }
            ]
          }
        ],
        "code": {
          "coding": [
            {
              "system": "http://snomed.info/sct",
              "code": "sdohcc-sctt-21000243108",
              "display": "Mild food insecurity (finding)"
            }
          ]
        },
        "subject": {
          "reference": "Patient/25675",
          "display": "Charlene Kay Buchanan"
        },
        "encounter": {
          "reference": "Encounter/458949",
          "display": "Wellness Encounter created 2017/03/12 00:00 for 2019/03/02"
        },
        "onsetDateTime": "2019-02-27T13:20:00+00:00",
        "recordedDate": "2019-02-27T13:20:00+00:00",
        "asserter": {
          "reference": "Practitioner/20865",
          "identifier": {
            "system": "http://hl7.org/fhir/sid/us-npi",
            "value": "9999999774"
          },
          "display": "Aaron Floyd Andrade MD"
        }
      }
    },
    {
      "fullUrl": "https://gw.interop.community/Harrison4Saffron/data/MedicationAdministration/64276",
      "resource": {
        "resourceType": "MedicationAdministration",
        "id": "64276",
        "meta": {
          "versionId": "1",
          "lastUpdated": "2023-04-04T02:48:02+00:00",
          "source": "#jtvhi4SW3PX1qRJe"
        },
        "text": {
          "status": "generated",
          "div": "<div xmlns=\"http://www.w3.org/1999/xhtml\">This is a simple narrative with only plain text</div>"
        },
        "extension": [
          {
            "url": "http://mihin.org/extension/copyright",
            "valueString": "Copyright 2014-2022 Michigan Health Information Network Shared Services. Licensed under the Apache License, Version 2.0 (the 'License'); you may not use this file except in compliance with the License. You may obtain a copy of the License at  http://www.apache.org/licenses/LICENSE-2.0.  Unless required by applicable law or agreed to in writing, software distributed under the License is distributed on an 'AS IS' BASIS, WITHOUT WARRANTIES OR CONDITIONS OF ANY KIND, either express or implied. See the License for the specific language governing permissions and limitations under the License."
          }
        ],
        "status": "completed",
        "medicationCodeableConcept": {
          "coding": [
            {
              "system": "http://www.nlm.nih.gov/research/umls/rxnorm",
              "code": "198014",
              "display": "Naproxen 500 MG Oral Tablet"
            }
          ]
        },
        "subject": {
          "reference": "Patient/25675",
          "display": "Charlene Kay Buchanan"
        },
        "context": {
          "reference": "Encounter/64267",
          "display": "Fibromyalgia [Fibromyalgia_Diagnosis [Encounter]]"
        },
        "effectiveDateTime": "2017-01-18T08:00:00+00:00",
        "performer": [
          {
            "actor": {
              "reference": "Practitioner/20217",
              "identifier": {
                "system": "http://hl7.org/fhir/sid/us-npi",
                "value": "9999999400"
              },
              "display": "Matthew Roberson MacIas MD"
            }
          }
        ],
        "reasonCode": [
          {
            "coding": [
              {
                "system": "http://snomed.info/sct",
                "code": "95417003",
                "display": "Primary fibromyalgia syndrome"
              }
            ]
          },
          {
            "coding": [
              {
                "system": "http://hl7.org/fhir/sid/icd-10",
                "code": "M79.7",
                "display": "Primary fibromyalgia syndrome"
              }
            ]
          }
        ],
        "request": {
          "reference": "MedicationRequest/64275",
          "display": "Fibromyalgia [Strong_NSAID [MedicationOrder]]"
        }
      }
    },
    {
      "fullUrl": "https://gw.interop.community/Harrison4Saffron/data/Immunization/2160610",
      "resource": {
        "resourceType": "Immunization",
        "id": "2160610",
        "meta": {
          "versionId": "1",
          "lastUpdated": "2023-04-06T17:21:18+00:00",
          "source": "#mkW6rXZ31guf2bUo"
        },
        "text": {
          "status": "generated",
          "div": "<div xmlns=\"http://www.w3.org/1999/xhtml\">This is a simple narrative with only plain text</div>"
        },
        "extension": [
          {
            "url": "http://mihin.org/extension/copyright",
            "valueString": "Copyright 2014-2022 Michigan Health Information Network Shared Services. Licensed under the Apache License, Version 2.0 (the 'License'); you may not use this file except in compliance with the License. You may obtain a copy of the License at  http://www.apache.org/licenses/LICENSE-2.0.  Unless required by applicable law or agreed to in writing, software distributed under the License is distributed on an 'AS IS' BASIS, WITHOUT WARRANTIES OR CONDITIONS OF ANY KIND, either express or implied. See the License for the specific language governing permissions and limitations under the License."
          }
        ],
        "identifier": [
          {
            "use": "official",
            "system": "http://mihin.org/fhir/sid/elementId",
            "value": "7721d2a5-2417-4fd0-9f8c-02ab64f3b590"
          }
        ],
        "status": "completed",
        "vaccineCode": {
          "coding": [
            {
              "system": "NDC",
              "code": "00310-1222-15",
              "display": "ASTRAZENECA COVID-19 VACCINE"
            }
          ]
        },
        "patient": {
          "reference": "Patient/25675",
          "display": "Charlene Kay Buchanan"
        },
        "encounter": {
          "reference": "Encounter/2160608",
          "display": "Covid-19 Immunizations [Vaccination_Encounter [Encounter]]"
        },
        "recorded": "2021-03-17T12:40:00+00:00",
        "primarySource": true,
        "location": {
          "reference": "Location/18850",
          "display": "Global Southside Urgent Care Center"
        },
        "performer": [
          {
            "actor": {
              "reference": "Practitioner/20865",
              "identifier": {
                "system": "http://hl7.org/fhir/sid/us-npi",
                "value": "9999999774"
              },
              "display": "Aaron Floyd Andrade MD"
            }
          }
        ]
      }
    },
    {
      "fullUrl": "https://gw.interop.community/Harrison4Saffron/data/MedicationRequest/1983276",
      "resource": {
        "resourceType": "MedicationRequest",
        "id": "1983276",
        "meta": {
          "versionId": "1",
          "lastUpdated": "2023-04-06T12:27:11+00:00",
          "source": "#RzkYeLltX3mhrP1Q"
        },
        "text": {
          "status": "generated",
          "div": "<div xmlns=\"http://www.w3.org/1999/xhtml\">This is a simple narrative with only plain text</div>"
        },
        "extension": [
          {
            "url": "http://mihin.org/extension/copyright",
            "valueString": "Copyright 2014-2022 Michigan Health Information Network Shared Services. Licensed under the Apache License, Version 2.0 (the 'License'); you may not use this file except in compliance with the License. You may obtain a copy of the License at  http://www.apache.org/licenses/LICENSE-2.0.  Unless required by applicable law or agreed to in writing, software distributed under the License is distributed on an 'AS IS' BASIS, WITHOUT WARRANTIES OR CONDITIONS OF ANY KIND, either express or implied. See the License for the specific language governing permissions and limitations under the License."
          },
          {
            "url": "http://build.fhir.org/ig/HL7/davinci-crd/R4/ext-insurance.html",
            "valueReference": {
              "reference": "Coverage/1784728",
              "display": "Charlene Kay Buchanan Coverage"
            }
          }
        ],
        "identifier": [
          {
            "use": "official",
            "system": "http://mihin.org/fhir/sid/elementId",
            "value": "8a25a578-017a-4b7e-9b9e-92143f765c63"
          }
        ],
        "status": "active",
        "intent": "order",
        "medicationCodeableConcept": {
          "coding": [
            {
              "system": "http://www.nlm.nih.gov/research/umls/rxnorm",
              "code": "596926",
              "display": "duloxetine 20 MG Delayed Release Oral Capsule"
            }
          ]
        },
        "subject": {
          "reference": "Patient/25675",
          "display": "Charlene Kay Buchanan"
        },
        "encounter": {
          "reference": "Encounter/1983230",
          "display": "Fibromyalgia [Fibromyalgia_Episode [Encounter]]"
        },
        "authoredOn": "2021-01-24T00:00:00+00:00",
        "requester": {
          "reference": "Practitioner/19584",
          "identifier": {
            "system": "http://hl7.org/fhir/sid/us-npi",
            "value": "9999999144"
          },
          "display": "Stacy Lydia Baker MD"
        },
        "reasonCode": [
          {
            "coding": [
              {
                "system": "http://snomed.info/sct",
                "code": "95417003",
                "display": "Primary fibromyalgia syndrome"
              }
            ]
          },
          {
            "coding": [
              {
                "system": "http://hl7.org/fhir/sid/icd-10",
                "code": "M79.7",
                "display": "Primary fibromyalgia syndrome"
              }
            ]
          }
        ],
        "insurance": [
          {
            "reference": "Coverage/1784728",
            "display": "Charlene Kay Buchanan Coverage"
          }
        ]
      }
    },
    {
      "fullUrl": "https://gw.interop.community/Harrison4Saffron/data/MedicationRequest/448021",
      "resource": {
        "resourceType": "MedicationRequest",
        "id": "448021",
        "meta": {
          "versionId": "1",
          "lastUpdated": "2023-04-04T15:32:27+00:00",
          "source": "#W9HEJiDTBSDu8fSe"
        },
        "text": {
          "status": "generated",
          "div": "<div xmlns=\"http://www.w3.org/1999/xhtml\">This is a simple narrative with only plain text</div>"
        },
        "extension": [
          {
            "url": "http://mihin.org/extension/copyright",
            "valueString": "Copyright 2014-2022 Michigan Health Information Network Shared Services. Licensed under the Apache License, Version 2.0 (the 'License'); you may not use this file except in compliance with the License. You may obtain a copy of the License at  http://www.apache.org/licenses/LICENSE-2.0.  Unless required by applicable law or agreed to in writing, software distributed under the License is distributed on an 'AS IS' BASIS, WITHOUT WARRANTIES OR CONDITIONS OF ANY KIND, either express or implied. See the License for the specific language governing permissions and limitations under the License."
          },
          {
            "url": "http://build.fhir.org/ig/HL7/davinci-crd/R4/ext-insurance.html",
            "valueReference": {
              "reference": "Coverage/404103",
              "display": "Charlene Kay Buchanan Coverage"
            }
          }
        ],
        "identifier": [
          {
            "use": "official",
            "system": "http://mihin.org/fhir/sid/elementId",
            "value": "cbbabc75-9ec7-452d-8eef-a918c0d44ff2"
          }
        ],
        "status": "active",
        "intent": "order",
        "medicationCodeableConcept": {
          "coding": [
            {
              "system": "http://www.nlm.nih.gov/research/umls/rxnorm",
              "code": "849574",
              "display": "Naproxen sodium 220 MG Oral Tablet"
            }
          ]
        },
        "subject": {
          "reference": "Patient/25675",
          "display": "Charlene Kay Buchanan"
        },
        "encounter": {
          "reference": "Encounter/447970",
          "display": "Injuries [ED_Visit_For_Sprain [Encounter]]"
        },
        "authoredOn": "2019-02-17T00:00:00+00:00",
        "requester": {
          "reference": "Practitioner/19536",
          "identifier": {
            "system": "http://hl7.org/fhir/sid/us-npi",
            "value": "9999999155"
          },
          "display": "Wallace Noble Marsh MD"
        },
        "insurance": [
          {
            "reference": "Coverage/404103",
            "display": "Charlene Kay Buchanan Coverage"
          }
        ]
      }
    },
    {
      "fullUrl": "https://gw.interop.community/Harrison4Saffron/data/Condition/848003",
      "resource": {
        "resourceType": "Condition",
        "id": "848003",
        "meta": {
          "versionId": "1",
          "lastUpdated": "2023-04-05T03:31:29+00:00",
          "source": "#1pTTNPA2tmqOXWqN"
        },
        "text": {
          "status": "generated",
          "div": "<div xmlns=\"http://www.w3.org/1999/xhtml\">This is a simple narrative with only plain text</div>"
        },
        "extension": [
          {
            "url": "http://mihin.org/extension/copyright",
            "valueString": "Copyright 2014-2022 Michigan Health Information Network Shared Services. Licensed under the Apache License, Version 2.0 (the 'License'); you may not use this file except in compliance with the License. You may obtain a copy of the License at  http://www.apache.org/licenses/LICENSE-2.0.  Unless required by applicable law or agreed to in writing, software distributed under the License is distributed on an 'AS IS' BASIS, WITHOUT WARRANTIES OR CONDITIONS OF ANY KIND, either express or implied. See the License for the specific language governing permissions and limitations under the License."
          }
        ],
        "identifier": [
          {
            "use": "official",
            "system": "http://mihin.org/fhir/sid/elementId",
            "value": "ce1d71f9-51d5-4ed2-b91d-fb118c90a113"
          }
        ],
        "clinicalStatus": {
          "coding": [
            {
              "system": "http://hl7.org/fhir/ValueSet/condition-clinical",
              "code": "active",
              "display": "Active"
            }
          ]
        },
        "verificationStatus": {
          "coding": [
            {
              "system": "http://hl7.org/fhir/ValueSet/condition-ver-status",
              "code": "confirmed",
              "display": "Confirmed"
            }
          ]
        },
        "category": [
          {
            "coding": [
              {
                "system": "http://hl7.org/fhir/ValueSet/condition-category",
                "code": "encounter-diagnosis",
                "display": "Encounter Diagnosis"
              }
            ]
          }
        ],
        "code": {
          "coding": [
            {
              "system": "http://snomed.info/sct",
              "code": "840539006",
              "display": "COVID-19"
            }
          ]
        },
        "subject": {
          "reference": "Patient/25675",
          "display": "Charlene Kay Buchanan"
        },
        "encounter": {
          "reference": "Encounter/847978",
          "display": "infection [Encounter for Test [Encounter]]"
        },
        "onsetDateTime": "2020-04-19T00:52:00+00:00",
        "recordedDate": "2020-04-19T00:52:00+00:00",
        "asserter": {
          "reference": "Practitioner/19639",
          "identifier": {
            "system": "http://hl7.org/fhir/sid/us-npi",
            "value": "9999999141"
          },
          "display": "Annette Wong McBride MD"
        }
      }
    },
    {
      "fullUrl": "https://gw.interop.community/Harrison4Saffron/data/MedicationRequest/679679",
      "resource": {
        "resourceType": "MedicationRequest",
        "id": "679679",
        "meta": {
          "versionId": "1",
          "lastUpdated": "2023-04-04T22:49:10+00:00",
          "source": "#ytnzIDD3HjL93Yrc"
        },
        "text": {
          "status": "generated",
          "div": "<div xmlns=\"http://www.w3.org/1999/xhtml\">This is a simple narrative with only plain text</div>"
        },
        "extension": [
          {
            "url": "http://mihin.org/extension/copyright",
            "valueString": "Copyright 2014-2022 Michigan Health Information Network Shared Services. Licensed under the Apache License, Version 2.0 (the 'License'); you may not use this file except in compliance with the License. You may obtain a copy of the License at  http://www.apache.org/licenses/LICENSE-2.0.  Unless required by applicable law or agreed to in writing, software distributed under the License is distributed on an 'AS IS' BASIS, WITHOUT WARRANTIES OR CONDITIONS OF ANY KIND, either express or implied. See the License for the specific language governing permissions and limitations under the License."
          },
          {
            "url": "http://build.fhir.org/ig/HL7/davinci-crd/R4/ext-insurance.html",
            "valueReference": {
              "reference": "Coverage/608422",
              "display": "Charlene Kay Buchanan Coverage"
            }
          }
        ],
        "identifier": [
          {
            "use": "official",
            "system": "http://mihin.org/fhir/sid/elementId",
            "value": "0f969c48-30a8-4cae-8f0b-faaa4bb69a49"
          }
        ],
        "status": "active",
        "intent": "order",
        "medicationCodeableConcept": {
          "coding": [
            {
              "system": "http://www.nlm.nih.gov/research/umls/rxnorm",
              "code": "1367439",
              "display": "NuvaRing 0.12/0.015 MG per 24HR 21 Day Vaginal Ring"
            }
          ]
        },
        "subject": {
          "reference": "Patient/25675",
          "display": "Charlene Kay Buchanan"
        },
        "encounter": {
          "reference": "Encounter/679676",
          "display": "Vaginal Ring Contraceptive [Ring_Contraceptive_Consultation [Encounter]]"
        },
        "authoredOn": "2020-03-24T15:00:00+00:00",
        "requester": {
          "reference": "Practitioner/20865",
          "identifier": {
            "system": "http://hl7.org/fhir/sid/us-npi",
            "value": "9999999774"
          },
          "display": "Aaron Floyd Andrade MD"
        },
        "insurance": [
          {
            "reference": "Coverage/608422",
            "display": "Charlene Kay Buchanan Coverage"
          }
        ]
      }
    },
    {
      "fullUrl": "https://gw.interop.community/Harrison4Saffron/data/Observation/64270",
      "resource": {
        "resourceType": "Observation",
        "id": "64270",
        "meta": {
          "versionId": "2",
          "lastUpdated": "2023-05-06T04:19:34+00:00",
          "source": "#EV8UW0z9JuFEuKZR"
        },
        "text": {
          "status": "generated",
          "div": "<div xmlns=\"http://www.w3.org/1999/xhtml\">This is a simple narrative with only plain text</div>"
        },
        "extension": [
          {
            "url": "http://mihin.org/extension/copyright",
            "valueString": "Copyright 2014-2022 Michigan Health Information Network Shared Services. Licensed under the Apache License, Version 2.0 (the 'License'); you may not use this file except in compliance with the License. You may obtain a copy of the License at  http://www.apache.org/licenses/LICENSE-2.0.  Unless required by applicable law or agreed to in writing, software distributed under the License is distributed on an 'AS IS' BASIS, WITHOUT WARRANTIES OR CONDITIONS OF ANY KIND, either express or implied. See the License for the specific language governing permissions and limitations under the License."
          }
        ],
        "identifier": [
          {
            "use": "official",
            "system": "http://mihin.org/fhir/sid/elementId",
            "value": "13f06668-cea8-4cf1-8316-122cb77d3e92"
          }
        ],
        "status": "final",
        "category": [
          {
            "coding": [
              {
                "system": "http://terminology.hl7.org/CodeSystem/observation-category",
                "code": "vital-signs",
                "display": "Vital Signs"
              }
            ]
          }
        ],
        "code": {
          "coding": [
            {
              "system": "http://loinc.org",
              "code": "8716-3",
              "display": "Vital Signs"
            }
          ]
        },
        "subject": {
          "reference": "Patient/25675",
          "display": "Charlene Kay Buchanan"
        },
        "encounter": {
          "reference": "Encounter/64267",
          "display": "Fibromyalgia [Fibromyalgia_Diagnosis [Encounter]]"
        },
        "effectiveDateTime": "2017-01-11T08:00:00+00:00",
        "performer": [
          {
            "reference": "Practitioner/20217",
            "identifier": {
              "system": "http://terminology.hl7.org/CodeSystem/v2-0203",
              "value": "9999999400"
            },
            "display": "Matthew Roberson MacIas MD"
          }
        ],
        "component": [
          {
            "code": {
              "coding": [
                {
                  "system": "http://loinc.org",
                  "code": "8302-2",
                  "display": "Height"
                }
              ]
            },
            "valueQuantity": {
              "value": 163,
              "unit": "cm"
            }
          },
          {
            "code": {
              "coding": [
                {
                  "system": "http://loinc.org",
                  "code": "29463-7",
                  "display": "Weight"
                }
              ]
            },
            "valueQuantity": {
              "value": 70.1,
              "unit": "kg"
            }
          },
          {
            "code": {
              "coding": [
                {
                  "system": "http://loinc.org",
                  "code": "8310-5",
                  "display": "Temperature"
                }
              ]
            },
            "valueQuantity": {
              "value": 37.0,
              "unit": "C"
            }
          },
          {
            "code": {
              "coding": [
                {
                  "system": "http://loinc.org",
                  "code": "39156-5",
                  "display": "BMI"
                }
              ]
            },
            "valueQuantity": {
              "value": 26.3,
              "unit": "kg/m2"
            }
          },
          {
            "code": {
              "coding": [
                {
                  "system": "http://loinc.org",
                  "code": "8480-6",
                  "display": "Systolic Blood Pressure"
                }
              ]
            },
            "valueQuantity": {
              "value": 124,
              "unit": "mmHg"
            }
          },
          {
            "code": {
              "coding": [
                {
                  "system": "http://loinc.org",
                  "code": "8462-4",
                  "display": "Diastolic Blood Pressure"
                }
              ]
            },
            "valueQuantity": {
              "value": 81,
              "unit": "mmHg"
            }
          },
          {
            "code": {
              "coding": [
                {
                  "system": "http://loinc.org",
                  "code": "8867-4",
                  "display": "Heart Rate"
                }
              ]
            },
            "valueQuantity": {
              "value": 77,
              "unit": "{beats}/min"
            }
          },
          {
            "code": {
              "coding": [
                {
                  "system": "http://loinc.org",
                  "code": "9279-1",
                  "display": "Respiratory Rate"
                }
              ]
            },
            "valueQuantity": {
              "value": 19,
              "unit": "{breaths}/min"
            }
          },
          {
            "code": {
              "coding": [
                {
                  "system": "http://loinc.org",
                  "code": "59408-5",
                  "display": "Oxygen Saturation"
                }
              ]
            },
            "valueQuantity": {
              "value": 91,
              "unit": "%"
            }
          }
        ]
      }
    },
    {
      "fullUrl": "https://gw.interop.community/Harrison4Saffron/data/Encounter/1983230",
      "resource": {
        "resourceType": "Encounter",
        "id": "1983230",
        "meta": {
          "versionId": "2",
          "lastUpdated": "2023-05-02T18:42:04+00:00",
          "source": "#S8cGAemFREw3q88Z"
        },
        "text": {
          "status": "generated",
          "div": "<div xmlns=\"http://www.w3.org/1999/xhtml\">This is a simple narrative with only plain text</div>"
        },
        "extension": [
          {
            "url": "http://mihin.org/extension/copyright",
            "valueString": "Copyright 2014-2022 Michigan Health Information Network Shared Services. Licensed under the Apache License, Version 2.0 (the 'License'); you may not use this file except in compliance with the License. You may obtain a copy of the License at  http://www.apache.org/licenses/LICENSE-2.0.  Unless required by applicable law or agreed to in writing, software distributed under the License is distributed on an 'AS IS' BASIS, WITHOUT WARRANTIES OR CONDITIONS OF ANY KIND, either express or implied. See the License for the specific language governing permissions and limitations under the License."
          }
        ],
        "identifier": [
          {
            "use": "official",
            "value": "b55a24aa-59b8-483d-a494-118b82d21482"
          }
        ],
        "status": "finished",
        "class": {
          "system": "http://hl7.org/fhir/encounter-class",
          "code": "emergency",
          "display": "Emergency"
        },
        "type": [
          {
            "coding": [
              {
                "system": "http://snomed.info/sct",
                "code": "32485007",
                "display": "Hospital admission"
              }
            ]
          }
        ],
        "subject": {
          "reference": "Patient/25675",
          "display": "Charlene Kay Buchanan"
        },
        "participant": [
          {
            "type": [
              {
                "coding": [
                  {
                    "system": "http://hl7.org/fhir/v3/ParticipationType",
                    "code": "ATND",
                    "display": "attender"
                  }
                ]
              }
            ],
            "period": {
              "start": "2023-05-05T00:00:00+00:00",
              "end": "2023-05-05T00:00:00+00:00"
            },
            "individual": {
              "reference": "Practitioner/19584",
              "identifier": {
                "system": "http://hl7.org/fhir/sid/us-npi",
                "value": "9999999144"
              },
              "display": "Stacy Lydia Baker MD"
            }
          }
        ],
        "period": {
          "start": "2023-05-05T00:00:00+00:00",
          "end": "2023-05-05T00:00:00+00:00"
        },
        "reasonCode": [
          {
            "coding": [
              {
                "system": "http://snomed.info/sct",
                "code": "95417003",
                "display": "Influenza (Disorder)"
              }
            ]
          },
          {
            "coding": [
              {
                "system": "http://hl7.org/fhir/sid/icd-10",
                "code": "J10.1",
                "display": "Influenza (Disorder)"
              }
            ]
          }
        ],
        "hospitalization": {
          "dischargeDisposition": {
            "coding": [
              {
                "system": "http://hl7.org/fhir/discharge-disposition",
                "code": "home",
                "display": "Home"
              }
            ]
          }
        },
        "location": [
          {
            "location": {
              "reference": "Location/18834",
              "display": "St. Michael's Hospital"
            }
          }
        ],
        "serviceProvider": {
          "reference": "Organization/17151",
          "display": "St. Michael's Hospital"
        }
      }
    },
    {
      "fullUrl": "https://gw.interop.community/Harrison4Saffron/data/Patient/25675",
      "resource": {
        "resourceType": "Patient",
        "id": "25675",
        "meta": {
          "versionId": "2",
          "lastUpdated": "2023-05-06T04:29:53+00:00",
          "source": "#1MU2PoyTkMyTlcl3"
        },
        "text": {
          "status": "generated",
          "div": "<div xmlns=\"http://www.w3.org/1999/xhtml\">This is a simple narrative with only plain text</div>"
        },
        "extension": [
          {
            "url": "http://mihin.org/extension/copyright",
            "valueString": "Copyright 2014-2022 Michigan Health Information Network Shared Services. Licensed under the Apache License, Version 2.0 (the 'License'); you may not use this file except in compliance with the License. You may obtain a copy of the License at  http://www.apache.org/licenses/LICENSE-2.0.  Unless required by applicable law or agreed to in writing, software distributed under the License is distributed on an 'AS IS' BASIS, WITHOUT WARRANTIES OR CONDITIONS OF ANY KIND, either express or implied. See the License for the specific language governing permissions and limitations under the License."
          },
          {
            "url": "http://hl7.org/fhir/us/core/StructureDefinition/us-core-race",
            "valueCodeableConcept": {
              "coding": [
                {
                  "system": "http://terminology.hl7.org/CodeSystem/omb-race-category",
                  "code": "2106-3",
                  "display": "White"
                }
              ]
            }
          },
          {
            "url": "http://hl7.org/fhir/us/core/StructureDefinition/us-core-ethnicity",
            "valueCodeableConcept": {
              "coding": [
                {
                  "system": "http://terminology.hl7.org/CodeSystem/omb-ethnicity-category",
                  "code": "2186-5",
                  "display": "Not Hispanic or Latino"
                }
              ]
            }
          },
          {
            "url": "http://hl7.org/fhir/StructureDefinition/patient-religion",
            "valueCodeableConcept": {
              "coding": [
                {
                  "system": "http://terminology.hl7.org/CodeSystem/v3-ReligiousAffiliation",
                  "code": "1077",
                  "display": "Protestant"
                }
              ]
            }
          }
        ],
        "identifier": [
          {
            "use": "official",
            "type": {
              "coding": [
                {
                  "system": "http://terminology.hl7.org/CodeSystem/v2-0203",
                  "code": "SB",
                  "display": "Social Beneficiary Identifier"
                }
              ]
            },
            "system": "http://hl7.org/fhir/sid/us-ssn",
            "value": "000002398"
          },
          {
            "use": "official",
            "type": {
              "coding": [
                {
                  "system": "http://terminology.hl7.org/CodeSystem/v2-0203",
                  "code": "SB",
                  "display": "Social Beneficiary Identifier"
                }
              ]
            },
            "system": "http://mihin.org/fhir/cks",
            "value": "8a63410ad3e34f748374158a05bb15ea"
          }
        ],
        "active": true,
        "name": [
          {
            "use": "official",
            "family": "Buchanan",
            "given": [
              "Charlene",
              "Kay"
            ]
          }
        ],
        "telecom": [
          {
            "system": "phone",
            "value": "269-555-1329",
            "use": "home"
          },
          {
            "system": "phone",
            "value": "269-555-3447",
            "use": "mobile"
          }
        ],
        "gender": "female",
        "birthDate": "1972-12-09",
        "address": [
          {
            "use": "home",
            "type": "postal",
            "line": [
              "312 NE Main Street"
            ],
            "city": "Portage",
            "district": "Harrison",
            "state": "Anywhere",
            "postalCode": "49024"
          }
        ]
      }
    },
    {
      "fullUrl": "https://gw.interop.community/Harrison4Saffron/data/Condition/847929",
      "resource": {
        "resourceType": "Condition",
        "id": "847929",
        "meta": {
          "versionId": "1",
          "lastUpdated": "2023-04-05T03:31:29+00:00",
          "source": "#1pTTNPA2tmqOXWqN"
        },
        "text": {
          "status": "generated",
          "div": "<div xmlns=\"http://www.w3.org/1999/xhtml\">This is a simple narrative with only plain text</div>"
        },
        "extension": [
          {
            "url": "http://mihin.org/extension/copyright",
            "valueString": "Copyright 2014-2022 Michigan Health Information Network Shared Services. Licensed under the Apache License, Version 2.0 (the 'License'); you may not use this file except in compliance with the License. You may obtain a copy of the License at  http://www.apache.org/licenses/LICENSE-2.0.  Unless required by applicable law or agreed to in writing, software distributed under the License is distributed on an 'AS IS' BASIS, WITHOUT WARRANTIES OR CONDITIONS OF ANY KIND, either express or implied. See the License for the specific language governing permissions and limitations under the License."
          }
        ],
        "identifier": [
          {
            "use": "official",
            "system": "http://mihin.org/fhir/sid/elementId",
            "value": "d964d7ac-0c73-472f-834e-29e52ee92720"
          }
        ],
        "clinicalStatus": {
          "coding": [
            {
              "system": "http://hl7.org/fhir/ValueSet/condition-clinical",
              "code": "active",
              "display": "Active"
            }
          ]
        },
        "verificationStatus": {
          "coding": [
            {
              "system": "http://hl7.org/fhir/ValueSet/condition-ver-status",
              "code": "confirmed",
              "display": "Confirmed"
            }
          ]
        },
        "category": [
          {
            "coding": [
              {
                "system": "http://hl7.org/fhir/ValueSet/condition-category",
                "code": "encounter-diagnosis",
                "display": "Encounter Diagnosis"
              }
            ]
          }
        ],
        "code": {
          "coding": [
            {
              "system": "http://snomed.info/sct",
              "code": "386661006",
              "display": "Fever (finding)"
            }
          ]
        },
        "subject": {
          "reference": "Patient/25675",
          "display": "Charlene Kay Buchanan"
        },
        "encounter": {
          "reference": "Encounter/847978",
          "display": "infection [Encounter for Test [Encounter]]"
        },
        "onsetDateTime": "2020-04-19T00:00:00+00:00",
        "recordedDate": "2020-04-19T00:00:00+00:00",
        "asserter": {
          "reference": "Practitioner/19639",
          "identifier": {
            "system": "http://hl7.org/fhir/sid/us-npi",
            "value": "9999999141"
          },
          "display": "Annette Wong McBride MD"
        }
      }
    },
    {
      "fullUrl": "https://gw.interop.community/Harrison4Saffron/data/Location/18834",
      "resource": {
        "resourceType": "Location",
        "id": "18834",
        "meta": {
          "versionId": "2",
          "lastUpdated": "2023-05-05T15:08:13+00:00",
          "source": "#lQlIiI64D53gnPAd"
        },
        "text": {
          "status": "generated",
          "div": "<div xmlns=\"http://www.w3.org/1999/xhtml\">This is a simple narrative with only plain text</div>"
        },
        "extension": [
          {
            "url": "http://mihin.org/extension/copyright",
            "valueString": "Copyright 2014-2022 Michigan Health Information Network Shared Services. Licensed under the Apache License, Version 2.0 (the 'License'); you may not use this file except in compliance with the License. You may obtain a copy of the License at  http://www.apache.org/licenses/LICENSE-2.0.  Unless required by applicable law or agreed to in writing, software distributed under the License is distributed on an 'AS IS' BASIS, WITHOUT WARRANTIES OR CONDITIONS OF ANY KIND, either express or implied. See the License for the specific language governing permissions and limitations under the License."
          }
        ],
        "identifier": [
          {
            "use": "official",
            "system": "http://www.hl7.org/oid/",
            "value": "1.2.3.4.188"
          }
        ],
        "status": "active",
        "name": "St. Michael's Hospital",
        "mode": "instance",
        "type": [
          {
            "text": "Migrant Health"
          }
        ],
        "telecom": [
          {
            "system": "phone",
            "value": "(616) 555-1076",
            "use": "work"
          }
        ],
        "address": {
          "use": "work",
          "type": "physical",
          "line": [
            "55 N Maple Drive"
          ],
          "city": "Grand Rapids",
          "district": "Harrison",
          "state": "Anywhere",
          "postalCode": "49507"
        },
        "physicalType": {
          "coding": [
            {
              "system": "http://terminology.hl7.org/CodeSystem/location-physical-type",
              "code": "bu",
              "display": "Building"
            }
          ]
        },
        "position": {
          "longitude": -85.6413927424489,
          "latitude": 42.96137854001315
        },
        "managingOrganization": {
          "reference": "Organization/17151",
          "display": "St. Michael's Hospital"
        },
        "endpoint": [
          {
            "reference": "Endpoint/17478",
            "display": "St. Michael's Hospital"
          }
        ]
      }
    },
    {
      "fullUrl": "https://gw.interop.community/Harrison4Saffron/data/Condition/64269",
      "resource": {
        "resourceType": "Condition",
        "id": "64269",
        "meta": {
          "versionId": "4",
          "lastUpdated": "2023-05-06T03:05:21+00:00",
          "source": "#ykB9zbfwp9BoCXPE"
        },
        "text": {
          "status": "generated",
          "div": "<div xmlns=\"http://www.w3.org/1999/xhtml\">This is a simple narrative with only plain text</div>"
        },
        "extension": [
          {
            "url": "http://mihin.org/extension/copyright",
            "valueString": "Copyright 2014-2022 Michigan Health Information Network Shared Services. Licensed under the Apache License, Version 2.0 (the 'License'); you may not use this file except in compliance with the License. You may obtain a copy of the License at  http://www.apache.org/licenses/LICENSE-2.0.  Unless required by applicable law or agreed to in writing, software distributed under the License is distributed on an 'AS IS' BASIS, WITHOUT WARRANTIES OR CONDITIONS OF ANY KIND, either express or implied. See the License for the specific language governing permissions and limitations under the License."
          }
        ],
        "identifier": [
          {
            "use": "official",
            "system": "http://mihin.org/fhir/sid/elementId",
            "value": "37946db0-d0ce-4060-a632-477c500af41d"
          }
        ],
        "clinicalStatus": {
          "coding": [
            {
              "system": "http://terminology.hl7.org/CodeSystem/condition-clinical",
              "code": "active",
              "display": "Active"
            }
          ]
        },
        "verificationStatus": {
          "coding": [
            {
              "system": "http://terminology.hl7.org/CodeSystem/condition-ver-status",
              "code": "confirmed",
              "display": "Confirmed"
            }
          ]
        },
        "category": [
          {
            "coding": [
              {
                "system": "http://terminology.hl7.org/CodeSystem/condition-category",
                "code": "encounter-diagnosis",
                "display": "Encounter Diagnosis"
              }
            ]
          }
        ],
        "code": {
          "coding": [
            {
              "system": "http://snomed.info/sct",
              "code": "95417003",
              "display": "Influenza (Disorder)"
            },
            {
              "system": "http://hl7.org/fhir/sid/icd-10",
              "code": "J10.1",
              "display": "Influenza (Disorder)"
            }
          ]
        },
        "subject": {
          "reference": "Patient/25675",
          "display": "Charlene Kay Buchanan"
        },
        "encounter": {
          "reference": "Encounter/64267",
          "display": "Influenza (Disorder) [Doctor_Visit [Encounter]]"
        },
        "onsetDateTime": "2023-05-04T00:00:00+00:00",
        "recordedDate": "2023-05-04T00:00:00+00:00",
        "asserter": {
          "reference": "Practitioner/20217",
          "identifier": {
            "system": "http://terminology.hl7.org/CodeSystem/v2-0203",
            "value": "9999999400"
          },
          "display": "Matthew Roberson MacIas MD"
        }
      }
    },
    {
      "fullUrl": "https://gw.interop.community/Harrison4Saffron/data/Observation/64249",
      "resource": {
        "resourceType": "Observation",
        "id": "64249",
        "meta": {
          "versionId": "2",
          "lastUpdated": "2023-05-06T04:19:33+00:00",
          "source": "#CrvOrz81a6UsRZVd"
        },
        "text": {
          "status": "generated",
          "div": "<div xmlns=\"http://www.w3.org/1999/xhtml\">This is a simple narrative with only plain text</div>"
        },
        "extension": [
          {
            "url": "http://mihin.org/extension/copyright",
            "valueString": "Copyright 2014-2022 Michigan Health Information Network Shared Services. Licensed under the Apache License, Version 2.0 (the 'License'); you may not use this file except in compliance with the License. You may obtain a copy of the License at  http://www.apache.org/licenses/LICENSE-2.0.  Unless required by applicable law or agreed to in writing, software distributed under the License is distributed on an 'AS IS' BASIS, WITHOUT WARRANTIES OR CONDITIONS OF ANY KIND, either express or implied. See the License for the specific language governing permissions and limitations under the License."
          }
        ],
        "identifier": [
          {
            "use": "official",
            "system": "http://mihin.org/fhir/sid/elementId",
            "value": "4c86a4be-a119-47d1-8b5b-92868fff9fd1"
          }
        ],
        "status": "final",
        "category": [
          {
            "coding": [
              {
                "system": "http://terminology.hl7.org/CodeSystem/observation-category",
                "code": "vital-signs",
                "display": "Vital Signs"
              }
            ]
          }
        ],
        "code": {
          "coding": [
            {
              "system": "http://loinc.org",
              "code": "8716-3",
              "display": "Vital Signs"
            }
          ]
        },
        "subject": {
          "reference": "Patient/25675",
          "display": "Charlene Kay Buchanan"
        },
        "encounter": {
          "reference": "Encounter/64247",
          "display": "Intrauterine Device [IUD_Consultation_Encounter [Encounter]]"
        },
        "effectiveDateTime": "2017-01-11T10:20:00+00:00",
        "performer": [
          {
            "reference": "Practitioner/20865",
            "identifier": {
              "system": "http://terminology.hl7.org/CodeSystem/v2-0203",
              "value": "9999999774"
            },
            "display": "Aaron Floyd Andrade MD"
          }
        ],
        "component": [
          {
            "code": {
              "coding": [
                {
                  "system": "http://loinc.org",
                  "code": "8302-2",
                  "display": "Height"
                }
              ]
            },
            "valueQuantity": {
              "value": 163,
              "unit": "cm"
            }
          },
          {
            "code": {
              "coding": [
                {
                  "system": "http://loinc.org",
                  "code": "29463-7",
                  "display": "Weight"
                }
              ]
            },
            "valueQuantity": {
              "value": 70.1,
              "unit": "kg"
            }
          },
          {
            "code": {
              "coding": [
                {
                  "system": "http://loinc.org",
                  "code": "8310-5",
                  "display": "Temperature"
                }
              ]
            },
            "valueQuantity": {
              "value": 37.0,
              "unit": "C"
            }
          },
          {
            "code": {
              "coding": [
                {
                  "system": "http://loinc.org",
                  "code": "39156-5",
                  "display": "BMI"
                }
              ]
            },
            "valueQuantity": {
              "value": 26.3,
              "unit": "kg/m2"
            }
          },
          {
            "code": {
              "coding": [
                {
                  "system": "http://loinc.org",
                  "code": "8480-6",
                  "display": "Systolic Blood Pressure"
                }
              ]
            },
            "valueQuantity": {
              "value": 124,
              "unit": "mmHg"
            }
          },
          {
            "code": {
              "coding": [
                {
                  "system": "http://loinc.org",
                  "code": "8462-4",
                  "display": "Diastolic Blood Pressure"
                }
              ]
            },
            "valueQuantity": {
              "value": 81,
              "unit": "mmHg"
            }
          },
          {
            "code": {
              "coding": [
                {
                  "system": "http://loinc.org",
                  "code": "8867-4",
                  "display": "Heart Rate"
                }
              ]
            },
            "valueQuantity": {
              "value": 77,
              "unit": "{beats}/min"
            }
          },
          {
            "code": {
              "coding": [
                {
                  "system": "http://loinc.org",
                  "code": "9279-1",
                  "display": "Respiratory Rate"
                }
              ]
            },
            "valueQuantity": {
              "value": 19,
              "unit": "{breaths}/min"
            }
          },
          {
            "code": {
              "coding": [
                {
                  "system": "http://loinc.org",
                  "code": "59408-5",
                  "display": "Oxygen Saturation"
                }
              ]
            },
            "valueQuantity": {
              "value": 91,
              "unit": "%"
            }
          }
        ]
      }
    },
    {
      "fullUrl": "https://gw.interop.community/Harrison4Saffron/data/MedicationRequest/459035",
      "resource": {
        "resourceType": "MedicationRequest",
        "id": "459035",
        "meta": {
          "versionId": "1",
          "lastUpdated": "2023-04-04T15:51:43+00:00",
          "source": "#O5qCWGatKBNpvDBQ"
        },
        "text": {
          "status": "generated",
          "div": "<div xmlns=\"http://www.w3.org/1999/xhtml\">This is a simple narrative with only plain text</div>"
        },
        "extension": [
          {
            "url": "http://mihin.org/extension/copyright",
            "valueString": "Copyright 2014-2022 Michigan Health Information Network Shared Services. Licensed under the Apache License, Version 2.0 (the 'License'); you may not use this file except in compliance with the License. You may obtain a copy of the License at  http://www.apache.org/licenses/LICENSE-2.0.  Unless required by applicable law or agreed to in writing, software distributed under the License is distributed on an 'AS IS' BASIS, WITHOUT WARRANTIES OR CONDITIONS OF ANY KIND, either express or implied. See the License for the specific language governing permissions and limitations under the License."
          },
          {
            "url": "http://build.fhir.org/ig/HL7/davinci-crd/R4/ext-insurance.html",
            "valueReference": {
              "reference": "Coverage/404103",
              "display": "Charlene Kay Buchanan Coverage"
            }
          }
        ],
        "identifier": [
          {
            "use": "official",
            "system": "http://mihin.org/fhir/sid/elementId",
            "value": "d5caa19b-2aec-4ec7-9039-21b5b50eb412"
          }
        ],
        "status": "active",
        "intent": "order",
        "medicationCodeableConcept": {
          "coding": [
            {
              "system": "http://www.nlm.nih.gov/research/umls/rxnorm",
              "code": "748856",
              "display": "Yaz 28 Day Pack"
            }
          ]
        },
        "subject": {
          "reference": "Patient/25675",
          "display": "Charlene Kay Buchanan"
        },
        "encounter": {
          "reference": "Encounter/459032",
          "display": "Oral Contraceptive [Encounter_For_Oral_Contraceptive [Encounter]]"
        },
        "authoredOn": "2019-03-13T11:54:00+00:00",
        "requester": {
          "reference": "Practitioner/20865",
          "identifier": {
            "system": "http://hl7.org/fhir/sid/us-npi",
            "value": "9999999774"
          },
          "display": "Aaron Floyd Andrade MD"
        },
        "insurance": [
          {
            "reference": "Coverage/404103",
            "display": "Charlene Kay Buchanan Coverage"
          }
        ]
      }
    }
  ]
}