{
  "resourceType": "Bundle",
  "id": "44327cea-b9a9-4807-b92b-3846dde30797",
  "meta": {
    "versionId": "1",
    "lastUpdated": "2023-05-30T21:17:13.734+00:00",
    "profile": [
      "http://hl7.org/fhir/us/ecr/StructureDefinition/eicr-document-bundle"
    ]
  },
  "identifier": {
    "system": "http://example.com/identifier",
    "value": "Sample Value"
  },
  "type": "document",
  "timestamp": "2023-05-06T18:56:28.932+00:00",
  "entry": [
    {
      "resource": {
        "resourceType": "Composition",
        "id": "f5386ddd-9e05-45e8-9cb0-d185552760b6",
        "extension": [
          {
            "url": "http://hl7.org/fhir/StructureDefinition/composition-clinicaldocument-versionNumber",
            "valueString": "1"
          }
        ],
        "identifier": {
          "value": "f5386ddd-9e05-45e8-9cb0-d185552760b6"
        },
        "status": "final",
        "type": {
          "coding": [
            {
              "system": "http://loinc.org",
              "code": "55751-2",
              "display": "Public Health Case Report"
            }
          ],
          "text": "Public Health Case Report"
        },
        "subject": {
          "reference": "https://gw.interop.community/Harrison4Saffron/data/Patient/22983"
        },
        "encounter": {
          "reference": "https://gw.interop.community/Harrison4Saffron/data/Encounter/37607"
        },
        "date": "2023-05-06T18:56:28+00:00",
        "author": [
          {
            "reference": "https://gw.interop.community/Harrison4Saffron/data/Practitioner/20096"
          }
        ],
        "title": "Public Health Case Report",
        "custodian": {
          "reference": "https://gw.interop.community/Harrison4Saffron/data/Organization/17366"
        },
        "section": [
          {
            "code": {
              "coding": [
                {
                  "system": "http://loinc.org",
                  "code": "46239-0",
                  "display": "Chief complaint+Reason for visit Narrative"
                }
              ],
              "text": "Chief complaint+Reason for visit Narrative"
            }
          },
          {
            "code": {
              "coding": [
                {
                  "system": "http://loinc.org",
                  "code": "10164-2",
                  "display": "History of Present illness Narrative"
                }
              ],
              "text": "History of Present illness Narrative"
            }
          },
          {
            "code": {
              "coding": [
                {
                  "system": "http://loinc.org",
                  "code": "10187-3",
                  "display": "Review of Systems narrative"
                }
              ],
              "text": "Review of Systems narrative"
            }
          },
          {
            "code": {
              "coding": [
                {
                  "system": "http://loinc.org",
                  "code": "11450-4",
                  "display": "Problem Section Narrative"
                }
              ],
              "text": "Problem Section Narrative"
            },
            "entry": [
              {
                "reference": "https://gw.interop.community/Harrison4Saffron/data/Condition/613296"
              },
              {
                "reference": "https://gw.interop.community/Harrison4Saffron/data/Condition/203369"
              },
              {
                "reference": "https://gw.interop.community/Harrison4Saffron/data/Condition/507447"
              },
              {
                "reference": "https://gw.interop.community/Harrison4Saffron/data/Condition/203358"
              },
              {
                "reference": "https://gw.interop.community/Harrison4Saffron/data/Condition/2068084"
              },
              {
                "reference": "https://gw.interop.community/Harrison4Saffron/data/Condition/414115"
              },
              {
                "reference": "https://gw.interop.community/Harrison4Saffron/data/Condition/203148"
              },
              {
                "reference": "https://gw.interop.community/Harrison4Saffron/data/Condition/784010"
              },
              {
                "reference": "https://gw.interop.community/Harrison4Saffron/data/Condition/1399504"
              },
              {
                "reference": "https://gw.interop.community/Harrison4Saffron/data/Condition/500947"
              },
              {
                "reference": "https://gw.interop.community/Harrison4Saffron/data/Condition/727220"
              },
              {
                "reference": "https://gw.interop.community/Harrison4Saffron/data/Condition/619479"
              },
              {
                "reference": "https://gw.interop.community/Harrison4Saffron/data/Condition/2513191"
              },
              {
                "reference": "https://gw.interop.community/Harrison4Saffron/data/Condition/37609"
              },
              {
                "reference": "https://gw.interop.community/Harrison4Saffron/data/Condition/783085"
              },
              {
                "reference": "https://gw.interop.community/Harrison4Saffron/data/Condition/619499"
              },
              {
                "extension": [
                  {
                    "extension": [
                      {
                        "url": "triggerCodeValueSet",
                        "valueString": "http://ersd.aimsplatform.org/fhir/ValueSet/sdtc"
                      },
                      {
                        "url": "triggerCodeValueSetVersion",
                        "valueString": "2022-10-19"
                      },
                      {
                        "url": "triggerCode",
                        "valueCoding": {
                          "system": "http://snomed.info/sct",
                          "code": "840544004"
                        }
                      }
                    ],
                    "url": "http://hl7.org/fhir/us/ecr/StructureDefinition/eicr-trigger-code-flag-extension"
                  }
                ],
                "reference": "https://gw.interop.community/Harrison4Saffron/data/Condition/783093"
              },
              {
                "reference": "https://gw.interop.community/Harrison4Saffron/data/Condition/405498"
              },
              {
                "reference": "https://gw.interop.community/Harrison4Saffron/data/Condition/1843853"
              },
              {
                "reference": "https://gw.interop.community/Harrison4Saffron/data/Condition/783086"
              },
              {
                "reference": "https://gw.interop.community/Harrison4Saffron/data/Condition/1399463"
              },
              {
                "reference": "https://gw.interop.community/Harrison4Saffron/data/Condition/1095811"
              }
            ]
          },
          {
            "code": {
              "coding": [
                {
                  "system": "http://loinc.org",
                  "code": "11348-0",
                  "display": "Past Medical History Narrative"
                }
              ],
              "text": "Past Medical History Narrative"
            }
          },
          {
            "code": {
              "coding": [
                {
                  "system": "http://loinc.org",
                  "code": "29549-3",
                  "display": "Medications Administered Narrative"
                }
              ],
              "text": "Medications Administered Narrative"
            }
          },
          {
            "code": {
              "coding": [
                {
                  "system": "http://loinc.org",
                  "code": "30954-2",
                  "display": "Results Section Narrative"
                }
              ],
              "text": "Results Section Narrative"
            }
          },
          {
            "code": {
              "coding": [
                {
                  "system": "http://loinc.org",
                  "code": "18776-5",
                  "display": "Plan of Treatment Narrative"
                }
              ],
              "text": "Plan of Treatment Narrative"
            },
            "entry": [
              {
                "reference": "https://gw.interop.community/Harrison4Saffron/data/MedicationRequest/414117"
              },
              {
                "reference": "https://gw.interop.community/Harrison4Saffron/data/MedicationRequest/619502"
              },
              {
                "reference": "https://gw.interop.community/Harrison4Saffron/data/MedicationRequest/619503"
              },
              {
                "reference": "https://gw.interop.community/Harrison4Saffron/data/MedicationRequest/203370"
              },
              {
                "reference": "https://gw.interop.community/Harrison4Saffron/data/MedicationRequest/223607"
              },
              {
                "reference": "https://gw.interop.community/Harrison4Saffron/data/MedicationRequest/414116"
              },
              {
                "reference": "https://gw.interop.community/Harrison4Saffron/data/MedicationRequest/501102"
              },
              {
                "reference": "https://gw.interop.community/Harrison4Saffron/data/MedicationRequest/1843856"
              },
              {
                "reference": "https://gw.interop.community/Harrison4Saffron/data/MedicationRequest/37615"
              },
              {
                "reference": "https://gw.interop.community/Harrison4Saffron/data/MedicationRequest/1843855"
              },
              {
                "reference": "https://gw.interop.community/Harrison4Saffron/data/MedicationRequest/405603"
              },
              {
                "reference": "https://gw.interop.community/Harrison4Saffron/data/MedicationRequest/507602"
              },
              {
                "reference": "https://gw.interop.community/Harrison4Saffron/data/MedicationRequest/1399509"
              },
              {
                "reference": "https://gw.interop.community/Harrison4Saffron/data/MedicationRequest/256653"
              },
              {
                "reference": "https://gw.interop.community/Harrison4Saffron/data/MedicationRequest/1843857"
              },
              {
                "reference": "https://gw.interop.community/Harrison4Saffron/data/MedicationRequest/414118"
              },
              {
                "reference": "https://gw.interop.community/Harrison4Saffron/data/MedicationRequest/1399468"
              },
              {
                "reference": "https://gw.interop.community/Harrison4Saffron/data/MedicationRequest/613301"
              },
              {
                "reference": "https://gw.interop.community/Harrison4Saffron/data/MedicationRequest/203372"
              },
              {
                "reference": "https://gw.interop.community/Harrison4Saffron/data/MedicationRequest/1843854"
              },
              {
                "reference": "https://gw.interop.community/Harrison4Saffron/data/MedicationRequest/727225"
              },
              {
                "reference": "https://gw.interop.community/Harrison4Saffron/data/MedicationRequest/203373"
              },
              {
                "reference": "https://gw.interop.community/Harrison4Saffron/data/MedicationRequest/414119"
              },
              {
                "reference": "https://gw.interop.community/Harrison4Saffron/data/MedicationRequest/619500"
              },
              {
                "reference": "https://gw.interop.community/Harrison4Saffron/data/MedicationRequest/203371"
              },
              {
                "reference": "https://gw.interop.community/Harrison4Saffron/data/MedicationRequest/256650"
              },
              {
                "reference": "https://gw.interop.community/Harrison4Saffron/data/MedicationRequest/2513196"
              },
              {
                "reference": "https://gw.interop.community/Harrison4Saffron/data/MedicationRequest/2068089"
              },
              {
                "reference": "https://gw.interop.community/Harrison4Saffron/data/MedicationRequest/639790"
              },
              {
                "reference": "https://gw.interop.community/Harrison4Saffron/data/MedicationRequest/619501"
              },
              {
                "reference": "https://gw.interop.community/Harrison4Saffron/data/MedicationRequest/501103"
              }
            ]
          },
          {
            "code": {
              "coding": [
                {
                  "system": "http://loinc.org",
                  "code": "11369-6",
                  "display": "Immunizations Narrative"
                }
              ],
              "text": "Immunizations Narrative"
            },
            "entry": [
              {
                "reference": "https://gw.interop.community/Harrison4Saffron/data/Immunization/203134"
              },
              {
                "reference": "https://gw.interop.community/Harrison4Saffron/data/Immunization/203133"
              },
              {
                "reference": "https://gw.interop.community/Harrison4Saffron/data/Immunization/619469"
              },
              {
                "reference": "https://gw.interop.community/Harrison4Saffron/data/Immunization/1843728"
              },
              {
                "reference": "https://gw.interop.community/Harrison4Saffron/data/Immunization/2368174"
              },
              {
                "reference": "https://gw.interop.community/Harrison4Saffron/data/Immunization/414088"
              },
              {
                "reference": "https://gw.interop.community/Harrison4Saffron/data/Immunization/2293296"
              },
              {
                "reference": "https://gw.interop.community/Harrison4Saffron/data/Immunization/1843729"
              },
              {
                "reference": "https://gw.interop.community/Harrison4Saffron/data/Immunization/619468"
              }
            ]
          },
          {
            "code": {
              "coding": [
                {
                  "system": "http://loinc.org",
                  "code": "47519-4",
                  "display": "Procedure Section Narrative"
                }
              ],
              "text": "Procedure Section Narrative"
            }
          },
          {
            "code": {
              "coding": [
                {
                  "system": "http://loinc.org",
                  "code": "8716-3",
                  "display": "Vital Signs Narrative"
                }
              ],
              "text": "Vital Signs Narrative"
            }
          },
          {
            "code": {
              "coding": [
                {
                  "system": "http://loinc.org",
                  "code": "29762-2",
                  "display": "Social History Narrative"
                }
              ],
              "text": "Social History Narrative"
            }
          },
          {
            "code": {
              "coding": [
                {
                  "system": "http://loinc.org",
                  "code": "90767-5",
                  "display": "Pregnancy Section Narrative"
                }
              ],
              "text": "Pregnancy Section Narrative"
            }
          },
          {
            "code": {
              "coding": [
                {
                  "system": "http://loinc.org",
                  "code": "83910-0",
                  "display": "Emergency Outbreak Section Narrative"
                }
              ],
              "text": "Emergency Outbreak Section Narrative"
            }
          }
        ]
      }
    },
    {
      "fullUrl": "https://gw.interop.community/Harrison4Saffron/data/Condition/613296",
      "resource": {
        "resourceType": "Condition",
        "id": "613296",
        "meta": {
          "versionId": "1",
          "lastUpdated": "2023-04-04T20:47:35+00:00",
          "source": "#3zSULwccdBwEcAqF"
        },
        "text": {
          "status": "generated",
          "div": "<div xmlns=\"http://www.w3.org/1999/xhtml\">This is a simple narrative with only plain text</div>"
        },
        "extension": [
          {
            "url": "http://mihin.org/extension/copyright",
            "valueString": "Copyright 2014-2022 Michigan Health Information Network Shared Services. Licensed under the Apache License, Version 2.0 (the 'License'); you may not use this file except in compliance with the License. You may obtain a copy of the License at  http://www.apache.org/licenses/LICENSE-2.0.  Unless required by applicable law or agreed to in writing, software distributed under the License is distributed on an 'AS IS' BASIS, WITHOUT WARRANTIES OR CONDITIONS OF ANY KIND, either express or implied. See the License for the specific language governing permissions and limitations under the License."
          }
        ],
        "identifier": [
          {
            "use": "official",
            "system": "http://mihin.org/fhir/sid/elementId",
            "value": "88a1e3d8-9b53-436f-ae49-17cac3c4d759"
          }
        ],
        "clinicalStatus": {
          "coding": [
            {
              "system": "http://hl7.org/fhir/ValueSet/condition-clinical",
              "code": "active",
              "display": "Active"
            }
          ]
        },
        "verificationStatus": {
          "coding": [
            {
              "system": "http://hl7.org/fhir/ValueSet/condition-ver-status",
              "code": "confirmed",
              "display": "Confirmed"
            }
          ]
        },
        "category": [
          {
            "coding": [
              {
                "system": "http://hl7.org/fhir/ValueSet/condition-category",
                "code": "encounter-diagnosis",
                "display": "Encounter Diagnosis"
              }
            ]
          }
        ],
        "code": {
          "coding": [
            {
              "system": "http://snomed.info/sct",
              "code": "33839006",
              "display": "Genital herpes simplex (disorder)"
            },
            {
              "system": "http://hl7.org/fhir/sid/icd-10",
              "code": "A60.9",
              "display": "Genital herpes simplex (disorder)"
            }
          ]
        },
        "subject": {
          "reference": "Patient/22983",
          "display": "Irene Anne Freeman"
        },
        "encounter": {
          "reference": "Encounter/613294",
          "display": "Genital  Herpes [Ambulatory_Encounter [Encounter]]"
        },
        "onsetDateTime": "2019-11-12T10:00:00+00:00",
        "recordedDate": "2019-11-12T10:00:00+00:00",
        "asserter": {
          "reference": "Practitioner/20851",
          "identifier": {
            "system": "http://hl7.org/fhir/sid/us-npi",
            "value": "9999999800"
          },
          "display": "Frances Angela Roth MD"
        }
      }
    },
    {
      "fullUrl": "https://gw.interop.community/Harrison4Saffron/data/MedicationRequest/619502",
      "resource": {
        "resourceType": "MedicationRequest",
        "id": "619502",
        "meta": {
          "versionId": "1",
          "lastUpdated": "2023-04-04T20:56:25+00:00",
          "source": "#ggD7o2R3PAdWQOgG"
        },
        "text": {
          "status": "generated",
          "div": "<div xmlns=\"http://www.w3.org/1999/xhtml\">This is a simple narrative with only plain text</div>"
        },
        "extension": [
          {
            "url": "http://mihin.org/extension/copyright",
            "valueString": "Copyright 2014-2022 Michigan Health Information Network Shared Services. Licensed under the Apache License, Version 2.0 (the 'License'); you may not use this file except in compliance with the License. You may obtain a copy of the License at  http://www.apache.org/licenses/LICENSE-2.0.  Unless required by applicable law or agreed to in writing, software distributed under the License is distributed on an 'AS IS' BASIS, WITHOUT WARRANTIES OR CONDITIONS OF ANY KIND, either express or implied. See the License for the specific language governing permissions and limitations under the License."
          },
          {
            "url": "http://build.fhir.org/ig/HL7/davinci-crd/R4/ext-insurance.html",
            "valueReference": {
              "reference": "Coverage/303656",
              "display": "Irene Anne Freeman Coverage"
            }
          }
        ],
        "identifier": [
          {
            "use": "official",
            "system": "http://mihin.org/fhir/sid/elementId",
            "value": "442a75f8-85bd-4e1b-a895-f20316a4c713"
          }
        ],
        "status": "active",
        "intent": "order",
        "medicationCodeableConcept": {
          "coding": [
            {
              "system": "http://www.nlm.nih.gov/research/umls/rxnorm",
              "code": "104416",
              "display": "amLODIPine Besylate"
            }
          ]
        },
        "subject": {
          "reference": "Patient/22983",
          "display": "Irene Anne Freeman"
        },
        "encounter": {
          "reference": "Encounter/619407",
          "display": "Wellness Encounter created 2018/12/23 00:00 for 2019/12/13"
        },
        "authoredOn": "2019-12-10T14:40:00+00:00",
        "requester": {
          "reference": "Practitioner/20851",
          "identifier": {
            "system": "http://hl7.org/fhir/sid/us-npi",
            "value": "9999999800"
          },
          "display": "Frances Angela Roth MD"
        },
        "reasonCode": [
          {
            "coding": [
              {
                "system": "http://snomed.info/sct:731000124108",
                "code": "48146000",
                "display": "Diastolic hypertension"
              }
            ]
          }
        ],
        "insurance": [
          {
            "reference": "Coverage/303656",
            "display": "Irene Anne Freeman Coverage"
          }
        ],
        "dosageInstruction": [
          {
            "sequence": 1,
            "timing": {
              "repeat": {
                "frequency": 1,
                "period": 1,
                "periodUnit": "d"
              }
            },
            "asNeededBoolean": false,
            "doseAndRate": [
              {
                "doseQuantity": {
                  "value": 1
                }
              }
            ]
          }
        ],
        "dispenseRequest": {
          "validityPeriod": {
            "start": "2019-12-10T14:40:00+00:00",
            "end": "2019-12-10T14:40:00+00:00"
          }
        }
      }
    },
    {
      "fullUrl": "https://gw.interop.community/Harrison4Saffron/data/MedicationRequest/619503",
      "resource": {
        "resourceType": "MedicationRequest",
        "id": "619503",
        "meta": {
          "versionId": "1",
          "lastUpdated": "2023-04-04T20:56:25+00:00",
          "source": "#ggD7o2R3PAdWQOgG"
        },
        "text": {
          "status": "generated",
          "div": "<div xmlns=\"http://www.w3.org/1999/xhtml\">This is a simple narrative with only plain text</div>"
        },
        "extension": [
          {
            "url": "http://mihin.org/extension/copyright",
            "valueString": "Copyright 2014-2022 Michigan Health Information Network Shared Services. Licensed under the Apache License, Version 2.0 (the 'License'); you may not use this file except in compliance with the License. You may obtain a copy of the License at  http://www.apache.org/licenses/LICENSE-2.0.  Unless required by applicable law or agreed to in writing, software distributed under the License is distributed on an 'AS IS' BASIS, WITHOUT WARRANTIES OR CONDITIONS OF ANY KIND, either express or implied. See the License for the specific language governing permissions and limitations under the License."
          },
          {
            "url": "http://build.fhir.org/ig/HL7/davinci-crd/R4/ext-insurance.html",
            "valueReference": {
              "reference": "Coverage/303656",
              "display": "Irene Anne Freeman Coverage"
            }
          }
        ],
        "identifier": [
          {
            "use": "official",
            "system": "http://mihin.org/fhir/sid/elementId",
            "value": "0f6236d9-6b9a-42dd-9f0d-c3a96a28a18d"
          }
        ],
        "status": "active",
        "intent": "order",
        "medicationCodeableConcept": {
          "coding": [
            {
              "system": "http://www.nlm.nih.gov/research/umls/rxnorm",
              "code": "258337",
              "display": "Hydrochlorothiazide / Triamterene"
            }
          ]
        },
        "subject": {
          "reference": "Patient/22983",
          "display": "Irene Anne Freeman"
        },
        "encounter": {
          "reference": "Encounter/619407",
          "display": "Wellness Encounter created 2018/12/23 00:00 for 2019/12/13"
        },
        "authoredOn": "2019-12-10T14:40:00+00:00",
        "requester": {
          "reference": "Practitioner/20851",
          "identifier": {
            "system": "http://hl7.org/fhir/sid/us-npi",
            "value": "9999999800"
          },
          "display": "Frances Angela Roth MD"
        },
        "reasonCode": [
          {
            "coding": [
              {
                "system": "http://hl7.org/fhir/sid/icd-10-cm",
                "code": "I10",
                "display": "Essential (primary) hypertension"
              }
            ]
          }
        ],
        "insurance": [
          {
            "reference": "Coverage/303656",
            "display": "Irene Anne Freeman Coverage"
          }
        ],
        "dosageInstruction": [
          {
            "sequence": 1,
            "timing": {
              "repeat": {
                "frequency": 1,
                "period": 1,
                "periodUnit": "d"
              }
            },
            "asNeededBoolean": false,
            "doseAndRate": [
              {
                "doseQuantity": {
                  "value": 1
                }
              }
            ]
          }
        ],
        "dispenseRequest": {
          "validityPeriod": {
            "start": "2019-12-10T14:40:00+00:00",
            "end": "2019-12-10T14:40:00+00:00"
          }
        }
      }
    },
    {
      "fullUrl": "https://gw.interop.community/Harrison4Saffron/data/Condition/203148",
      "resource": {
        "resourceType": "Condition",
        "id": "203148",
        "meta": {
          "versionId": "2",
          "lastUpdated": "2023-05-06T18:46:10+00:00",
          "source": "#6jns5XXTWkEbGUW7"
        },
        "text": {
          "status": "generated",
          "div": "<div xmlns=\"http://www.w3.org/1999/xhtml\">This is a simple narrative with only plain text</div>"
        },
        "extension": [
          {
            "url": "http://mihin.org/extension/copyright",
            "valueString": "Copyright 2014-2022 Michigan Health Information Network Shared Services. Licensed under the Apache License, Version 2.0 (the 'License'); you may not use this file except in compliance with the License. You may obtain a copy of the License at  http://www.apache.org/licenses/LICENSE-2.0.  Unless required by applicable law or agreed to in writing, software distributed under the License is distributed on an 'AS IS' BASIS, WITHOUT WARRANTIES OR CONDITIONS OF ANY KIND, either express or implied. See the License for the specific language governing permissions and limitations under the License."
          }
        ],
        "identifier": [
          {
            "use": "official",
            "system": "http://mihin.org/fhir/sid/elementId",
            "value": "67c7b25a-99c2-4f03-8e80-307352ccf9e5"
          }
        ],
        "clinicalStatus": {
          "coding": [
            {
              "system": "http://terminology.hl7.org/CodeSystem/condition-clinical",
              "code": "active",
              "display": "Active"
            }
          ]
        },
        "verificationStatus": {
          "coding": [
            {
              "system": "http://terminology.hl7.org/CodeSystem/condition-ver-status",
              "code": "confirmed",
              "display": "Confirmed"
            }
          ]
        },
        "category": [
          {
            "coding": [
              {
                "system": "http://terminology.hl7.org/CodeSystem/condition-category",
                "code": "encounter-diagnosis",
                "display": "Encounter Diagnosis"
              }
            ]
          }
        ],
        "code": {
          "coding": [
            {
              "system": "http://snomed.info/sct",
              "code": "sdohcc-sctt-41000243104",
              "display": "Severe food insecurity (finding)"
            }
          ]
        },
        "subject": {
          "reference": "Patient/22983",
          "display": "Irene Anne Freeman"
        },
        "encounter": {
          "reference": "Encounter/203167",
          "display": "Wellness Encounter created 2017/01/08 00:00 for 2017/12/11"
        },
        "onsetDateTime": "2017-12-11T14:20:00+00:00",
        "recordedDate": "2017-12-11T14:20:00+00:00",
        "asserter": {
          "reference": "Practitioner/20851",
          "identifier": {
            "system": "http://terminology.hl7.org/CodeSystem/v2-0203",
            "value": "9999999800"
          },
          "display": "Frances Angela Roth MD"
        }
      }
    },
    {
      "fullUrl": "https://gw.interop.community/Harrison4Saffron/data/MedicationRequest/414116",
      "resource": {
        "resourceType": "MedicationRequest",
        "id": "414116",
        "meta": {
          "versionId": "1",
          "lastUpdated": "2023-04-04T14:26:08+00:00",
          "source": "#R928ojzXgQCZeOcv"
        },
        "text": {
          "status": "generated",
          "div": "<div xmlns=\"http://www.w3.org/1999/xhtml\">This is a simple narrative with only plain text</div>"
        },
        "extension": [
          {
            "url": "http://mihin.org/extension/copyright",
            "valueString": "Copyright 2014-2022 Michigan Health Information Network Shared Services. Licensed under the Apache License, Version 2.0 (the 'License'); you may not use this file except in compliance with the License. You may obtain a copy of the License at  http://www.apache.org/licenses/LICENSE-2.0.  Unless required by applicable law or agreed to in writing, software distributed under the License is distributed on an 'AS IS' BASIS, WITHOUT WARRANTIES OR CONDITIONS OF ANY KIND, either express or implied. See the License for the specific language governing permissions and limitations under the License."
          },
          {
            "url": "http://build.fhir.org/ig/HL7/davinci-crd/R4/ext-insurance.html",
            "valueReference": {
              "reference": "Coverage/111690",
              "display": "Irene Anne Freeman Coverage"
            }
          }
        ],
        "identifier": [
          {
            "use": "official",
            "system": "http://mihin.org/fhir/sid/elementId",
            "value": "84c67b70-bc18-40cc-af4a-602f944a95cc"
          }
        ],
        "status": "active",
        "intent": "order",
        "medicationCodeableConcept": {
          "coding": [
            {
              "system": "http://www.nlm.nih.gov/research/umls/rxnorm",
              "code": "979487",
              "display": "Losartan Potassium 25 MG Oral Tablet [Cozaar]"
            }
          ]
        },
        "subject": {
          "reference": "Patient/22983",
          "display": "Irene Anne Freeman"
        },
        "encounter": {
          "reference": "Encounter/414086",
          "display": "Wellness Encounter created 2017/12/24 00:00 for 2018/12/11"
        },
        "authoredOn": "2018-12-13T15:40:00+00:00",
        "requester": {
          "reference": "Practitioner/20851",
          "identifier": {
            "system": "http://hl7.org/fhir/sid/us-npi",
            "value": "9999999800"
          },
          "display": "Frances Angela Roth MD"
        },
        "reasonCode": [
          {
            "coding": [
              {
                "system": "http://snomed.info/sct:731000124108",
                "code": "56218007",
                "display": "Systolic hypertension"
              }
            ]
          }
        ],
        "insurance": [
          {
            "reference": "Coverage/111690",
            "display": "Irene Anne Freeman Coverage"
          }
        ],
        "dosageInstruction": [
          {
            "sequence": 1,
            "timing": {
              "repeat": {
                "frequency": 1,
                "period": 1,
                "periodUnit": "d"
              }
            },
            "asNeededBoolean": false,
            "doseAndRate": [
              {
                "doseQuantity": {
                  "value": 1
                }
              }
            ]
          }
        ],
        "dispenseRequest": {
          "validityPeriod": {
            "start": "2018-12-13T15:40:00+00:00",
            "end": "2018-12-13T15:40:00+00:00"
          }
        }
      }
    },
    {
      "fullUrl": "https://gw.interop.community/Harrison4Saffron/data/MedicationRequest/501102",
      "resource": {
        "resourceType": "MedicationRequest",
        "id": "501102",
        "meta": {
          "versionId": "1",
          "lastUpdated": "2023-04-04T17:13:13+00:00",
          "source": "#JAKFyE4t3pKY4gME"
        },
        "text": {
          "status": "generated",
          "div": "<div xmlns=\"http://www.w3.org/1999/xhtml\">This is a simple narrative with only plain text</div>"
        },
        "extension": [
          {
            "url": "http://mihin.org/extension/copyright",
            "valueString": "Copyright 2014-2022 Michigan Health Information Network Shared Services. Licensed under the Apache License, Version 2.0 (the 'License'); you may not use this file except in compliance with the License. You may obtain a copy of the License at  http://www.apache.org/licenses/LICENSE-2.0.  Unless required by applicable law or agreed to in writing, software distributed under the License is distributed on an 'AS IS' BASIS, WITHOUT WARRANTIES OR CONDITIONS OF ANY KIND, either express or implied. See the License for the specific language governing permissions and limitations under the License."
          },
          {
            "url": "http://build.fhir.org/ig/HL7/davinci-crd/R4/ext-insurance.html",
            "valueReference": {
              "reference": "Coverage/303656",
              "display": "Irene Anne Freeman Coverage"
            }
          }
        ],
        "identifier": [
          {
            "use": "official",
            "system": "http://mihin.org/fhir/sid/elementId",
            "value": "0e2f6e6e-4665-4b00-991f-e378aabcbe4b"
          }
        ],
        "status": "active",
        "intent": "order",
        "medicationCodeableConcept": {
          "coding": [
            {
              "system": "http://www.nlm.nih.gov/research/umls/rxnorm",
              "code": "1049221",
              "display": "Acetaminophen 325 MG / oxyCODONE Hydrochloride 5 MG Oral Tablet"
            }
          ]
        },
        "subject": {
          "reference": "Patient/22983",
          "display": "Irene Anne Freeman"
        },
        "encounter": {
          "reference": "Encounter/500862",
          "display": "Injuries [ED_Visit_For_Broken_Bone [Encounter]]"
        },
        "authoredOn": "2019-05-19T01:00:00+00:00",
        "requester": {
          "reference": "Practitioner/19443",
          "identifier": {
            "system": "http://hl7.org/fhir/sid/us-npi",
            "value": "9999999984"
          },
          "display": "Greg Clements Perry MD"
        },
        "insurance": [
          {
            "reference": "Coverage/303656",
            "display": "Irene Anne Freeman Coverage"
          }
        ],
        "dosageInstruction": [
          {
            "sequence": 1,
            "timing": {
              "repeat": {
                "frequency": 1,
                "period": 6,
                "periodUnit": "h"
              }
            },
            "asNeededBoolean": false,
            "doseAndRate": [
              {
                "doseQuantity": {
                  "value": 1
                }
              }
            ]
          }
        ],
        "dispenseRequest": {
          "validityPeriod": {
            "start": "2019-05-19T01:00:00+00:00",
            "end": "2019-05-19T01:00:00+00:00"
          }
        }
      }
    },
    {
      "fullUrl": "https://gw.interop.community/Harrison4Saffron/data/MedicationRequest/37615",
      "resource": {
        "resourceType": "MedicationRequest",
        "id": "37615",
        "meta": {
          "versionId": "1",
          "lastUpdated": "2023-04-04T01:57:28+00:00",
          "source": "#4f6BP1GqpA6hrXek"
        },
        "text": {
          "status": "generated",
          "div": "<div xmlns=\"http://www.w3.org/1999/xhtml\">This is a simple narrative with only plain text</div>"
        },
        "extension": [
          {
            "url": "http://mihin.org/extension/copyright",
            "valueString": "Copyright 2014-2022 Michigan Health Information Network Shared Services. Licensed under the Apache License, Version 2.0 (the 'License'); you may not use this file except in compliance with the License. You may obtain a copy of the License at  http://www.apache.org/licenses/LICENSE-2.0.  Unless required by applicable law or agreed to in writing, software distributed under the License is distributed on an 'AS IS' BASIS, WITHOUT WARRANTIES OR CONDITIONS OF ANY KIND, either express or implied. See the License for the specific language governing permissions and limitations under the License."
          },
          {
            "url": "http://build.fhir.org/ig/HL7/davinci-crd/R4/ext-insurance.html",
            "valueReference": {
              "reference": "Coverage/27383",
              "display": "Irene Anne Freeman Coverage"
            }
          },
          {
            "url": "http://build.fhir.org/ig/HL7/davinci-crd/R4/ext-insurance.html",
            "valueReference": {
              "reference": "Coverage/27247",
              "display": "Irene Anne Freeman Coverage"
            }
          }
        ],
        "identifier": [
          {
            "use": "official",
            "system": "http://mihin.org/fhir/sid/elementId",
            "value": "25211bd3-6d0e-47e7-9c39-7a0f80a57038"
          }
        ],
        "status": "active",
        "intent": "order",
        "medicationCodeableConcept": {
          "coding": [
            {
              "system": "http://www.nlm.nih.gov/research/umls/rxnorm",
              "code": "198014",
              "display": "Naproxen 500 MG Oral Tablet"
            }
          ]
        },
        "subject": {
          "reference": "Patient/22983",
          "display": "Irene Anne Freeman"
        },
        "encounter": {
          "reference": "Encounter/37607",
          "display": "Fibromyalgia [Fibromyalgia_Diagnosis [Encounter]]"
        },
        "authoredOn": "2017-01-17T15:00:00+00:00",
        "requester": {
          "reference": "Practitioner/20096",
          "identifier": {
            "system": "http://hl7.org/fhir/sid/us-npi",
            "value": "9999999460"
          },
          "display": "Larry Mario Parks MD"
        },
        "reasonCode": [
          {
            "coding": [
              {
                "system": "http://snomed.info/sct",
                "code": "95417003",
                "display": "Primary fibromyalgia syndrome"
              }
            ]
          },
          {
            "coding": [
              {
                "system": "http://hl7.org/fhir/sid/icd-10",
                "code": "M79.7",
                "display": "Primary fibromyalgia syndrome"
              }
            ]
          }
        ],
        "insurance": [
          {
            "reference": "Coverage/27383",
            "display": "Irene Anne Freeman Coverage"
          },
          {
            "reference": "Coverage/27247",
            "display": "Irene Anne Freeman Coverage"
          }
        ]
      }
    },
    {
      "fullUrl": "https://gw.interop.community/Harrison4Saffron/data/MedicationRequest/1843855",
      "resource": {
        "resourceType": "MedicationRequest",
        "id": "1843855",
        "meta": {
          "versionId": "1",
          "lastUpdated": "2023-04-06T08:31:34+00:00",
          "source": "#nxx3h6aCdClpG99m"
        },
        "text": {
          "status": "generated",
          "div": "<div xmlns=\"http://www.w3.org/1999/xhtml\">This is a simple narrative with only plain text</div>"
        },
        "extension": [
          {
            "url": "http://mihin.org/extension/copyright",
            "valueString": "Copyright 2014-2022 Michigan Health Information Network Shared Services. Licensed under the Apache License, Version 2.0 (the 'License'); you may not use this file except in compliance with the License. You may obtain a copy of the License at  http://www.apache.org/licenses/LICENSE-2.0.  Unless required by applicable law or agreed to in writing, software distributed under the License is distributed on an 'AS IS' BASIS, WITHOUT WARRANTIES OR CONDITIONS OF ANY KIND, either express or implied. See the License for the specific language governing permissions and limitations under the License."
          },
          {
            "url": "http://build.fhir.org/ig/HL7/davinci-crd/R4/ext-insurance.html",
            "valueReference": {
              "reference": "Coverage/507442",
              "display": "Irene Anne Freeman Coverage"
            }
          }
        ],
        "identifier": [
          {
            "use": "official",
            "system": "http://mihin.org/fhir/sid/elementId",
            "value": "7a9ed93b-8cc0-44cc-ad1c-b776c5671c55"
          }
        ],
        "status": "active",
        "intent": "order",
        "medicationCodeableConcept": {
          "coding": [
            {
              "system": "http://www.nlm.nih.gov/research/umls/rxnorm",
              "code": "860518",
              "display": "24 HR carvedilol phosphate 20 MG Extended Release Oral Capsule [Coreg]"
            }
          ]
        },
        "subject": {
          "reference": "Patient/22983",
          "display": "Irene Anne Freeman"
        },
        "encounter": {
          "reference": "Encounter/1843786",
          "display": "Wellness Encounter created 2019/12/22 00:00 for 2020/12/09"
        },
        "authoredOn": "2020-12-07T08:40:00+00:00",
        "requester": {
          "reference": "Practitioner/20851",
          "identifier": {
            "system": "http://hl7.org/fhir/sid/us-npi",
            "value": "9999999800"
          },
          "display": "Frances Angela Roth MD"
        },
        "reasonCode": [
          {
            "coding": [
              {
                "system": "http://snomed.info/sct:731000124108",
                "code": "46481004",
                "display": "Low-renin essential hypertension"
              }
            ]
          }
        ],
        "insurance": [
          {
            "reference": "Coverage/507442",
            "display": "Irene Anne Freeman Coverage"
          }
        ],
        "dosageInstruction": [
          {
            "sequence": 1,
            "timing": {
              "repeat": {
                "frequency": 1,
                "period": 1,
                "periodUnit": "d"
              }
            },
            "asNeededBoolean": false,
            "doseAndRate": [
              {
                "doseQuantity": {
                  "value": 1
                }
              }
            ]
          }
        ],
        "dispenseRequest": {
          "validityPeriod": {
            "start": "2020-12-07T08:40:00+00:00",
            "end": "2020-12-07T08:40:00+00:00"
          }
        }
      }
    },
    {
      "fullUrl": "https://gw.interop.community/Harrison4Saffron/data/Location/18687",
      "resource": {
        "resourceType": "Location",
        "id": "18687",
        "meta": {
          "versionId": "2",
          "lastUpdated": "2023-05-06T04:22:38+00:00",
          "source": "#CHsO0p4ERm6jxs4y"
        },
        "text": {
          "status": "generated",
          "div": "<div xmlns=\"http://www.w3.org/1999/xhtml\">This is a simple narrative with only plain text</div>"
        },
        "extension": [
          {
            "url": "http://mihin.org/extension/copyright",
            "valueString": "Copyright 2014-2022 Michigan Health Information Network Shared Services. Licensed under the Apache License, Version 2.0 (the 'License'); you may not use this file except in compliance with the License. You may obtain a copy of the License at  http://www.apache.org/licenses/LICENSE-2.0.  Unless required by applicable law or agreed to in writing, software distributed under the License is distributed on an 'AS IS' BASIS, WITHOUT WARRANTIES OR CONDITIONS OF ANY KIND, either express or implied. See the License for the specific language governing permissions and limitations under the License."
          }
        ],
        "identifier": [
          {
            "use": "official",
            "system": "http://www.hl7.org/oid/",
            "value": "1.2.3.4.212"
          }
        ],
        "status": "active",
        "name": "Soldier Ambulatory Services",
        "mode": "instance",
        "type": [
          {
            "text": "Clinic/Center"
          }
        ],
        "telecom": [
          {
            "system": "phone",
            "value": "(989) 555-5694",
            "use": "work"
          }
        ],
        "address": {
          "use": "work",
          "type": "physical",
          "line": [
            "691 SE Spanish Avenue"
          ],
          "city": "Hemlock",
          "district": "Harrison",
          "state": "Anywhere",
          "postalCode": "48626"
        },
        "physicalType": {
          "coding": [
            {
              "system": "http://terminology.hl7.org/CodeSystem/location-physical-type",
              "code": "bu",
              "display": "Building"
            }
          ]
        },
        "position": {
          "longitude": -84.22033188923274,
          "latitude": 43.41637822946592
        },
        "managingOrganization": {
          "reference": "Organization/17366",
          "display": "Soldier Ambulatory Services"
        },
        "endpoint": [
          {
            "reference": "Endpoint/17484",
            "display": "Soldier Ambulatory Services"
          }
        ]
      }
    },
    {
      "fullUrl": "https://gw.interop.community/Harrison4Saffron/data/Condition/500947",
      "resource": {
        "resourceType": "Condition",
        "id": "500947",
        "meta": {
          "versionId": "1",
          "lastUpdated": "2023-04-04T17:13:13+00:00",
          "source": "#JAKFyE4t3pKY4gME"
        },
        "text": {
          "status": "generated",
          "div": "<div xmlns=\"http://www.w3.org/1999/xhtml\">This is a simple narrative with only plain text</div>"
        },
        "extension": [
          {
            "url": "http://mihin.org/extension/copyright",
            "valueString": "Copyright 2014-2022 Michigan Health Information Network Shared Services. Licensed under the Apache License, Version 2.0 (the 'License'); you may not use this file except in compliance with the License. You may obtain a copy of the License at  http://www.apache.org/licenses/LICENSE-2.0.  Unless required by applicable law or agreed to in writing, software distributed under the License is distributed on an 'AS IS' BASIS, WITHOUT WARRANTIES OR CONDITIONS OF ANY KIND, either express or implied. See the License for the specific language governing permissions and limitations under the License."
          }
        ],
        "identifier": [
          {
            "use": "official",
            "system": "http://mihin.org/fhir/sid/elementId",
            "value": "fac6c55e-d51d-4db4-8306-a256c4d95bc5"
          }
        ],
        "clinicalStatus": {
          "coding": [
            {
              "system": "http://hl7.org/fhir/ValueSet/condition-clinical",
              "code": "active",
              "display": "Active"
            }
          ]
        },
        "verificationStatus": {
          "coding": [
            {
              "system": "http://hl7.org/fhir/ValueSet/condition-ver-status",
              "code": "confirmed",
              "display": "Confirmed"
            }
          ]
        },
        "category": [
          {
            "coding": [
              {
                "system": "http://hl7.org/fhir/ValueSet/condition-category",
                "code": "encounter-diagnosis",
                "display": "Encounter Diagnosis"
              }
            ]
          }
        ],
        "code": {
          "coding": [
            {
              "system": "http://snomed.info/sct",
              "code": "33737001",
              "display": "Fracture of rib"
            },
            {
              "system": "http://hl7.org/fhir/sid/icd-10",
              "code": "S22.39X",
              "display": "Fracture of rib"
            }
          ]
        },
        "subject": {
          "reference": "Patient/22983",
          "display": "Irene Anne Freeman"
        },
        "encounter": {
          "reference": "Encounter/500862",
          "display": "Injuries [ED_Visit_For_Broken_Bone [Encounter]]"
        },
        "onsetDateTime": "2018-01-21T00:00:00+00:00",
        "recordedDate": "2018-01-21T00:00:00+00:00",
        "asserter": {
          "reference": "Practitioner/19443",
          "identifier": {
            "system": "http://hl7.org/fhir/sid/us-npi",
            "value": "9999999984"
          },
          "display": "Greg Clements Perry MD"
        }
      }
    },
    {
      "fullUrl": "https://gw.interop.community/Harrison4Saffron/data/Condition/619499",
      "resource": {
        "resourceType": "Condition",
        "id": "619499",
        "meta": {
          "versionId": "1",
          "lastUpdated": "2023-04-04T20:56:25+00:00",
          "source": "#ggD7o2R3PAdWQOgG"
        },
        "text": {
          "status": "generated",
          "div": "<div xmlns=\"http://www.w3.org/1999/xhtml\">This is a simple narrative with only plain text</div>"
        },
        "extension": [
          {
            "url": "http://mihin.org/extension/copyright",
            "valueString": "Copyright 2014-2022 Michigan Health Information Network Shared Services. Licensed under the Apache License, Version 2.0 (the 'License'); you may not use this file except in compliance with the License. You may obtain a copy of the License at  http://www.apache.org/licenses/LICENSE-2.0.  Unless required by applicable law or agreed to in writing, software distributed under the License is distributed on an 'AS IS' BASIS, WITHOUT WARRANTIES OR CONDITIONS OF ANY KIND, either express or implied. See the License for the specific language governing permissions and limitations under the License."
          }
        ],
        "identifier": [
          {
            "use": "official",
            "system": "http://mihin.org/fhir/sid/elementId",
            "value": "1096e7fb-73b2-42af-8536-aa5a8edda33c"
          }
        ],
        "clinicalStatus": {
          "coding": [
            {
              "system": "http://hl7.org/fhir/ValueSet/condition-clinical",
              "code": "active",
              "display": "Active"
            }
          ]
        },
        "verificationStatus": {
          "coding": [
            {
              "system": "http://hl7.org/fhir/ValueSet/condition-ver-status",
              "code": "confirmed",
              "display": "Confirmed"
            }
          ]
        },
        "category": [
          {
            "coding": [
              {
                "system": "http://hl7.org/fhir/ValueSet/condition-category",
                "code": "encounter-diagnosis",
                "display": "Encounter Diagnosis"
              }
            ]
          }
        ],
        "code": {
          "coding": [
            {
              "system": "http://snomed.info/sct:731000124108",
              "code": "1201005",
              "display": "Benign essential hypertension"
            }
          ]
        },
        "subject": {
          "reference": "Patient/22983",
          "display": "Irene Anne Freeman"
        },
        "encounter": {
          "reference": "Encounter/619407",
          "display": "Wellness Encounter created 2018/12/23 00:00 for 2019/12/13"
        },
        "onsetDateTime": "2019-12-10T14:40:00+00:00",
        "recordedDate": "2019-12-10T14:40:00+00:00",
        "asserter": {
          "reference": "Practitioner/20851",
          "identifier": {
            "system": "http://hl7.org/fhir/sid/us-npi",
            "value": "9999999800"
          },
          "display": "Frances Angela Roth MD"
        }
      }
    },
    {
      "fullUrl": "https://gw.interop.community/Harrison4Saffron/data/Condition/783093",
      "resource": {
        "resourceType": "Condition",
        "id": "783093",
        "meta": {
          "versionId": "1",
          "lastUpdated": "2023-04-05T01:45:20+00:00",
          "source": "#rQD7ycNyoP28okc6"
        },
        "text": {
          "status": "generated",
          "div": "<div xmlns=\"http://www.w3.org/1999/xhtml\">This is a simple narrative with only plain text</div>"
        },
        "extension": [
          {
            "url": "http://mihin.org/extension/copyright",
            "valueString": "Copyright 2014-2022 Michigan Health Information Network Shared Services. Licensed under the Apache License, Version 2.0 (the 'License'); you may not use this file except in compliance with the License. You may obtain a copy of the License at  http://www.apache.org/licenses/LICENSE-2.0.  Unless required by applicable law or agreed to in writing, software distributed under the License is distributed on an 'AS IS' BASIS, WITHOUT WARRANTIES OR CONDITIONS OF ANY KIND, either express or implied. See the License for the specific language governing permissions and limitations under the License."
          }
        ],
        "identifier": [
          {
            "use": "official",
            "system": "http://mihin.org/fhir/sid/elementId",
            "value": "6ed379f0-bceb-43c2-b913-9dc2abc9fcbc"
          }
        ],
        "clinicalStatus": {
          "coding": [
            {
              "system": "http://hl7.org/fhir/ValueSet/condition-clinical",
              "code": "active",
              "display": "Active"
            }
          ]
        },
        "verificationStatus": {
          "coding": [
            {
              "system": "http://hl7.org/fhir/ValueSet/condition-ver-status",
              "code": "confirmed",
              "display": "Confirmed"
            }
          ]
        },
        "category": [
          {
            "coding": [
              {
                "system": "http://hl7.org/fhir/ValueSet/condition-category",
                "code": "encounter-diagnosis",
                "display": "Encounter Diagnosis"
              }
            ]
          }
        ],
        "code": {
          "coding": [
            {
              "system": "http://snomed.info/sct",
              "code": "840544004",
              "display": "Suspected COVID-19"
            }
          ]
        },
        "subject": {
          "reference": "Patient/22983",
          "display": "Irene Anne Freeman"
        },
        "encounter": {
          "reference": "Encounter/783131",
          "display": "infection [Encounter for Test [Encounter]]"
        },
        "onsetDateTime": "2020-04-19T00:00:00+00:00",
        "recordedDate": "2020-04-19T00:00:00+00:00",
        "asserter": {
          "reference": "Practitioner/19564",
          "identifier": {
            "system": "http://hl7.org/fhir/sid/us-npi",
            "value": "9999999982"
          },
          "display": "Courtney Welch Durham MD"
        }
      }
    },
    {
      "fullUrl": "https://gw.interop.community/Harrison4Saffron/data/Condition/405498",
      "resource": {
        "resourceType": "Condition",
        "id": "405498",
        "meta": {
          "versionId": "1",
          "lastUpdated": "2023-04-04T14:09:12+00:00",
          "source": "#FHzBegag33Eam6Fl"
        },
        "text": {
          "status": "generated",
          "div": "<div xmlns=\"http://www.w3.org/1999/xhtml\">This is a simple narrative with only plain text</div>"
        },
        "extension": [
          {
            "url": "http://mihin.org/extension/copyright",
            "valueString": "Copyright 2014-2022 Michigan Health Information Network Shared Services. Licensed under the Apache License, Version 2.0 (the 'License'); you may not use this file except in compliance with the License. You may obtain a copy of the License at  http://www.apache.org/licenses/LICENSE-2.0.  Unless required by applicable law or agreed to in writing, software distributed under the License is distributed on an 'AS IS' BASIS, WITHOUT WARRANTIES OR CONDITIONS OF ANY KIND, either express or implied. See the License for the specific language governing permissions and limitations under the License."
          }
        ],
        "identifier": [
          {
            "use": "official",
            "system": "http://mihin.org/fhir/sid/elementId",
            "value": "780c11dc-516d-43e9-a070-12717b88bf5d"
          }
        ],
        "clinicalStatus": {
          "coding": [
            {
              "system": "http://hl7.org/fhir/ValueSet/condition-clinical",
              "code": "active",
              "display": "Active"
            }
          ]
        },
        "verificationStatus": {
          "coding": [
            {
              "system": "http://hl7.org/fhir/ValueSet/condition-ver-status",
              "code": "confirmed",
              "display": "Confirmed"
            }
          ]
        },
        "category": [
          {
            "coding": [
              {
                "system": "http://hl7.org/fhir/ValueSet/condition-category",
                "code": "encounter-diagnosis",
                "display": "Encounter Diagnosis"
              }
            ]
          }
        ],
        "code": {
          "coding": [
            {
              "system": "http://snomed.info/sct",
              "code": "33839006",
              "display": "Genital herpes simplex (disorder)"
            },
            {
              "system": "http://hl7.org/fhir/sid/icd-10",
              "code": "A60.9",
              "display": "Genital herpes simplex (disorder)"
            }
          ]
        },
        "subject": {
          "reference": "Patient/22983",
          "display": "Irene Anne Freeman"
        },
        "encounter": {
          "reference": "Encounter/405496",
          "display": "Genital  Herpes [Ambulatory_Encounter [Encounter]]"
        },
        "onsetDateTime": "2018-11-18T09:20:00+00:00",
        "recordedDate": "2018-11-18T09:20:00+00:00",
        "asserter": {
          "reference": "Practitioner/20851",
          "identifier": {
            "system": "http://hl7.org/fhir/sid/us-npi",
            "value": "9999999800"
          },
          "display": "Frances Angela Roth MD"
        }
      }
    },
    {
      "fullUrl": "https://gw.interop.community/Harrison4Saffron/data/Condition/1843853",
      "resource": {
        "resourceType": "Condition",
        "id": "1843853",
        "meta": {
          "versionId": "1",
          "lastUpdated": "2023-04-06T08:31:34+00:00",
          "source": "#nxx3h6aCdClpG99m"
        },
        "text": {
          "status": "generated",
          "div": "<div xmlns=\"http://www.w3.org/1999/xhtml\">This is a simple narrative with only plain text</div>"
        },
        "extension": [
          {
            "url": "http://mihin.org/extension/copyright",
            "valueString": "Copyright 2014-2022 Michigan Health Information Network Shared Services. Licensed under the Apache License, Version 2.0 (the 'License'); you may not use this file except in compliance with the License. You may obtain a copy of the License at  http://www.apache.org/licenses/LICENSE-2.0.  Unless required by applicable law or agreed to in writing, software distributed under the License is distributed on an 'AS IS' BASIS, WITHOUT WARRANTIES OR CONDITIONS OF ANY KIND, either express or implied. See the License for the specific language governing permissions and limitations under the License."
          }
        ],
        "identifier": [
          {
            "use": "official",
            "system": "http://mihin.org/fhir/sid/elementId",
            "value": "10519e72-6364-47b6-a766-5bdaf9a1e293"
          }
        ],
        "clinicalStatus": {
          "coding": [
            {
              "system": "http://hl7.org/fhir/ValueSet/condition-clinical",
              "code": "active",
              "display": "Active"
            }
          ]
        },
        "verificationStatus": {
          "coding": [
            {
              "system": "http://hl7.org/fhir/ValueSet/condition-ver-status",
              "code": "confirmed",
              "display": "Confirmed"
            }
          ]
        },
        "category": [
          {
            "coding": [
              {
                "system": "http://hl7.org/fhir/ValueSet/condition-category",
                "code": "encounter-diagnosis",
                "display": "Encounter Diagnosis"
              }
            ]
          }
        ],
        "code": {
          "coding": [
            {
              "system": "http://snomed.info/sct:731000124108",
              "code": "1201005",
              "display": "Benign essential hypertension"
            }
          ]
        },
        "subject": {
          "reference": "Patient/22983",
          "display": "Irene Anne Freeman"
        },
        "encounter": {
          "reference": "Encounter/1843786",
          "display": "Wellness Encounter created 2019/12/22 00:00 for 2020/12/09"
        },
        "onsetDateTime": "2020-12-07T08:40:00+00:00",
        "recordedDate": "2020-12-07T08:40:00+00:00",
        "asserter": {
          "reference": "Practitioner/20851",
          "identifier": {
            "system": "http://hl7.org/fhir/sid/us-npi",
            "value": "9999999800"
          },
          "display": "Frances Angela Roth MD"
        }
      }
    },
    {
      "fullUrl": "https://gw.interop.community/Harrison4Saffron/data/MedicationRequest/1399509",
      "resource": {
        "resourceType": "MedicationRequest",
        "id": "1399509",
        "meta": {
          "versionId": "1",
          "lastUpdated": "2023-04-05T20:12:06+00:00",
          "source": "#7AihFxBlHBhGGBAy"
        },
        "text": {
          "status": "generated",
          "div": "<div xmlns=\"http://www.w3.org/1999/xhtml\">This is a simple narrative with only plain text</div>"
        },
        "extension": [
          {
            "url": "http://mihin.org/extension/copyright",
            "valueString": "Copyright 2014-2022 Michigan Health Information Network Shared Services. Licensed under the Apache License, Version 2.0 (the 'License'); you may not use this file except in compliance with the License. You may obtain a copy of the License at  http://www.apache.org/licenses/LICENSE-2.0.  Unless required by applicable law or agreed to in writing, software distributed under the License is distributed on an 'AS IS' BASIS, WITHOUT WARRANTIES OR CONDITIONS OF ANY KIND, either express or implied. See the License for the specific language governing permissions and limitations under the License."
          },
          {
            "url": "http://build.fhir.org/ig/HL7/davinci-crd/R4/ext-insurance.html",
            "valueReference": {
              "reference": "Coverage/1147752",
              "display": "Irene Anne Freeman Coverage"
            }
          },
          {
            "url": "http://build.fhir.org/ig/HL7/davinci-crd/R4/ext-insurance.html",
            "valueReference": {
              "reference": "Coverage/1147753",
              "display": "Irene Anne Freeman Coverage"
            }
          }
        ],
        "identifier": [
          {
            "use": "official",
            "system": "http://mihin.org/fhir/sid/elementId",
            "value": "dd6a60a5-82ab-4d44-9b14-695ce4e7a3b7"
          }
        ],
        "status": "active",
        "intent": "order",
        "medicationCodeableConcept": {
          "coding": [
            {
              "system": "http://www.nlm.nih.gov/research/umls/rxnorm",
              "code": "310965",
              "display": "Ibuprofen 200 MG Oral Tablet"
            }
          ]
        },
        "subject": {
          "reference": "Patient/22983",
          "display": "Irene Anne Freeman"
        },
        "encounter": {
          "reference": "Encounter/1399502",
          "display": "Injuries [ED_Visit_For_Broken_Bone [Encounter]]"
        },
        "authoredOn": "2020-08-09T00:34:00+00:00",
        "requester": {
          "reference": "Practitioner/19558",
          "identifier": {
            "system": "http://hl7.org/fhir/sid/us-npi",
            "value": "9999999977"
          },
          "display": "Derrick Franklin Cameron MD"
        },
        "insurance": [
          {
            "reference": "Coverage/1147752",
            "display": "Irene Anne Freeman Coverage"
          },
          {
            "reference": "Coverage/1147753",
            "display": "Irene Anne Freeman Coverage"
          }
        ]
      }
    },
    {
      "fullUrl": "https://gw.interop.community/Harrison4Saffron/data/Condition/1399463",
      "resource": {
        "resourceType": "Condition",
        "id": "1399463",
        "meta": {
          "versionId": "1",
          "lastUpdated": "2023-04-05T20:12:08+00:00",
          "source": "#aD8Ynw7FV7gbLcch"
        },
        "text": {
          "status": "generated",
          "div": "<div xmlns=\"http://www.w3.org/1999/xhtml\">This is a simple narrative with only plain text</div>"
        },
        "extension": [
          {
            "url": "http://mihin.org/extension/copyright",
            "valueString": "Copyright 2014-2022 Michigan Health Information Network Shared Services. Licensed under the Apache License, Version 2.0 (the 'License'); you may not use this file except in compliance with the License. You may obtain a copy of the License at  http://www.apache.org/licenses/LICENSE-2.0.  Unless required by applicable law or agreed to in writing, software distributed under the License is distributed on an 'AS IS' BASIS, WITHOUT WARRANTIES OR CONDITIONS OF ANY KIND, either express or implied. See the License for the specific language governing permissions and limitations under the License."
          }
        ],
        "identifier": [
          {
            "use": "official",
            "system": "http://mihin.org/fhir/sid/elementId",
            "value": "edaaee48-1da9-47e4-b531-dae59c43bd68"
          }
        ],
        "clinicalStatus": {
          "coding": [
            {
              "system": "http://hl7.org/fhir/ValueSet/condition-clinical",
              "code": "active",
              "display": "Active"
            }
          ]
        },
        "verificationStatus": {
          "coding": [
            {
              "system": "http://hl7.org/fhir/ValueSet/condition-ver-status",
              "code": "confirmed",
              "display": "Confirmed"
            }
          ]
        },
        "category": [
          {
            "coding": [
              {
                "system": "http://hl7.org/fhir/ValueSet/condition-category",
                "code": "encounter-diagnosis",
                "display": "Encounter Diagnosis"
              }
            ]
          }
        ],
        "code": {
          "coding": [
            {
              "system": "http://snomed.info/sct",
              "code": "33839006",
              "display": "Genital herpes simplex (disorder)"
            },
            {
              "system": "http://hl7.org/fhir/sid/icd-10",
              "code": "A60.9",
              "display": "Genital herpes simplex (disorder)"
            }
          ]
        },
        "subject": {
          "reference": "Patient/22983",
          "display": "Irene Anne Freeman"
        },
        "encounter": {
          "reference": "Encounter/1399461",
          "display": "Genital  Herpes [Ambulatory_Encounter [Encounter]]"
        },
        "onsetDateTime": "2020-07-24T15:00:00+00:00",
        "recordedDate": "2020-07-24T15:00:00+00:00",
        "asserter": {
          "reference": "Practitioner/20851",
          "identifier": {
            "system": "http://hl7.org/fhir/sid/us-npi",
            "value": "9999999800"
          },
          "display": "Frances Angela Roth MD"
        }
      }
    },
    {
      "fullUrl": "https://gw.interop.community/Harrison4Saffron/data/MedicationRequest/256653",
      "resource": {
        "resourceType": "MedicationRequest",
        "id": "256653",
        "meta": {
          "versionId": "1",
          "lastUpdated": "2023-04-04T09:15:47+00:00",
          "source": "#lKGb9iSpGe3S34N4"
        },
        "text": {
          "status": "generated",
          "div": "<div xmlns=\"http://www.w3.org/1999/xhtml\">This is a simple narrative with only plain text</div>"
        },
        "extension": [
          {
            "url": "http://mihin.org/extension/copyright",
            "valueString": "Copyright 2014-2022 Michigan Health Information Network Shared Services. Licensed under the Apache License, Version 2.0 (the 'License'); you may not use this file except in compliance with the License. You may obtain a copy of the License at  http://www.apache.org/licenses/LICENSE-2.0.  Unless required by applicable law or agreed to in writing, software distributed under the License is distributed on an 'AS IS' BASIS, WITHOUT WARRANTIES OR CONDITIONS OF ANY KIND, either express or implied. See the License for the specific language governing permissions and limitations under the License."
          },
          {
            "url": "http://build.fhir.org/ig/HL7/davinci-crd/R4/ext-insurance.html",
            "valueReference": {
              "reference": "Coverage/111690",
              "display": "Irene Anne Freeman Coverage"
            }
          }
        ],
        "identifier": [
          {
            "use": "official",
            "system": "http://mihin.org/fhir/sid/elementId",
            "value": "80cbbf3d-ec6a-4ea7-a70e-c161338dd21e"
          }
        ],
        "status": "active",
        "intent": "order",
        "medicationCodeableConcept": {
          "coding": [
            {
              "system": "http://www.nlm.nih.gov/research/umls/rxnorm",
              "code": "1870230",
              "display": "NDA020800 0.3 ML Epinephrine 1 MG/ML Auto-Injector"
            }
          ]
        },
        "subject": {
          "reference": "Patient/22983",
          "display": "Irene Anne Freeman"
        },
        "encounter": {
          "reference": "Encounter/256629",
          "display": "Allergies and Treatment [Allergist_Initial_Visit [Encounter]]"
        },
        "authoredOn": "2018-03-11T15:23:00+00:00",
        "requester": {
          "reference": "Practitioner/20271",
          "identifier": {
            "system": "http://hl7.org/fhir/sid/us-npi",
            "value": "9999999465"
          },
          "display": "Daniel Cain Odom MD"
        },
        "insurance": [
          {
            "reference": "Coverage/111690",
            "display": "Irene Anne Freeman Coverage"
          }
        ]
      }
    },
    {
      "fullUrl": "https://gw.interop.community/Harrison4Saffron/data/Condition/507447",
      "resource": {
        "resourceType": "Condition",
        "id": "507447",
        "meta": {
          "versionId": "1",
          "lastUpdated": "2023-04-04T17:26:18+00:00",
          "source": "#bFg9aCF0jwz3rKVD"
        },
        "text": {
          "status": "generated",
          "div": "<div xmlns=\"http://www.w3.org/1999/xhtml\">This is a simple narrative with only plain text</div>"
        },
        "extension": [
          {
            "url": "http://mihin.org/extension/copyright",
            "valueString": "Copyright 2014-2022 Michigan Health Information Network Shared Services. Licensed under the Apache License, Version 2.0 (the 'License'); you may not use this file except in compliance with the License. You may obtain a copy of the License at  http://www.apache.org/licenses/LICENSE-2.0.  Unless required by applicable law or agreed to in writing, software distributed under the License is distributed on an 'AS IS' BASIS, WITHOUT WARRANTIES OR CONDITIONS OF ANY KIND, either express or implied. See the License for the specific language governing permissions and limitations under the License."
          }
        ],
        "identifier": [
          {
            "use": "official",
            "system": "http://mihin.org/fhir/sid/elementId",
            "value": "5cc248b1-103a-4049-bb2d-9989cd7ccb59"
          }
        ],
        "clinicalStatus": {
          "coding": [
            {
              "system": "http://hl7.org/fhir/ValueSet/condition-clinical",
              "code": "active",
              "display": "Active"
            }
          ]
        },
        "verificationStatus": {
          "coding": [
            {
              "system": "http://hl7.org/fhir/ValueSet/condition-ver-status",
              "code": "confirmed",
              "display": "Confirmed"
            }
          ]
        },
        "category": [
          {
            "coding": [
              {
                "system": "http://hl7.org/fhir/ValueSet/condition-category",
                "code": "encounter-diagnosis",
                "display": "Encounter Diagnosis"
              }
            ]
          }
        ],
        "code": {
          "coding": [
            {
              "system": "http://snomed.info/sct",
              "code": "33839006",
              "display": "Genital herpes simplex (disorder)"
            },
            {
              "system": "http://hl7.org/fhir/sid/icd-10",
              "code": "A60.9",
              "display": "Genital herpes simplex (disorder)"
            }
          ]
        },
        "subject": {
          "reference": "Patient/22983",
          "display": "Irene Anne Freeman"
        },
        "encounter": {
          "reference": "Encounter/507445",
          "display": "Genital  Herpes [Ambulatory_Encounter [Encounter]]"
        },
        "onsetDateTime": "2019-05-16T10:00:00+00:00",
        "recordedDate": "2019-05-16T10:00:00+00:00",
        "asserter": {
          "reference": "Practitioner/20851",
          "identifier": {
            "system": "http://hl7.org/fhir/sid/us-npi",
            "value": "9999999800"
          },
          "display": "Frances Angela Roth MD"
        }
      }
    },
    {
      "fullUrl": "https://gw.interop.community/Harrison4Saffron/data/Condition/203358",
      "resource": {
        "resourceType": "Condition",
        "id": "203358",
        "meta": {
          "versionId": "2",
          "lastUpdated": "2023-05-06T18:46:12+00:00",
          "source": "#HVKp60n9AAOmU1YN"
        },
        "text": {
          "status": "generated",
          "div": "<div xmlns=\"http://www.w3.org/1999/xhtml\">This is a simple narrative with only plain text</div>"
        },
        "extension": [
          {
            "url": "http://mihin.org/extension/copyright",
            "valueString": "Copyright 2014-2022 Michigan Health Information Network Shared Services. Licensed under the Apache License, Version 2.0 (the 'License'); you may not use this file except in compliance with the License. You may obtain a copy of the License at  http://www.apache.org/licenses/LICENSE-2.0.  Unless required by applicable law or agreed to in writing, software distributed under the License is distributed on an 'AS IS' BASIS, WITHOUT WARRANTIES OR CONDITIONS OF ANY KIND, either express or implied. See the License for the specific language governing permissions and limitations under the License."
          }
        ],
        "identifier": [
          {
            "use": "official",
            "system": "http://mihin.org/fhir/sid/elementId",
            "value": "82284a0d-b95f-497d-981f-a17d2fdf8ba5"
          }
        ],
        "clinicalStatus": {
          "coding": [
            {
              "system": "http://terminology.hl7.org/CodeSystem/condition-clinical",
              "code": "active",
              "display": "Active"
            }
          ]
        },
        "verificationStatus": {
          "coding": [
            {
              "system": "http://terminology.hl7.org/CodeSystem/condition-ver-status",
              "code": "confirmed",
              "display": "Confirmed"
            }
          ]
        },
        "category": [
          {
            "coding": [
              {
                "system": "http://terminology.hl7.org/CodeSystem/condition-category",
                "code": "encounter-diagnosis",
                "display": "Encounter Diagnosis"
              }
            ]
          }
        ],
        "code": {
          "coding": [
            {
              "system": "http://snomed.info/sct",
              "code": "161641009",
              "display": "At risk of diabetes mellitus (finding)"
            }
          ]
        },
        "subject": {
          "reference": "Patient/22983",
          "display": "Irene Anne Freeman"
        },
        "encounter": {
          "reference": "Encounter/203167",
          "display": "Wellness Encounter created 2017/01/08 00:00 for 2017/12/11"
        },
        "onsetDateTime": "2017-12-11T14:45:00+00:00",
        "recordedDate": "2017-12-11T14:45:00+00:00",
        "asserter": {
          "reference": "Practitioner/20851",
          "identifier": {
            "system": "http://terminology.hl7.org/CodeSystem/v2-0203",
            "value": "9999999800"
          },
          "display": "Frances Angela Roth MD"
        }
      }
    },
    {
      "fullUrl": "https://gw.interop.community/Harrison4Saffron/data/Immunization/619469",
      "resource": {
        "resourceType": "Immunization",
        "id": "619469",
        "meta": {
          "versionId": "1",
          "lastUpdated": "2023-04-04T20:56:25+00:00",
          "source": "#ggD7o2R3PAdWQOgG"
        },
        "text": {
          "status": "generated",
          "div": "<div xmlns=\"http://www.w3.org/1999/xhtml\">This is a simple narrative with only plain text</div>"
        },
        "extension": [
          {
            "url": "http://mihin.org/extension/copyright",
            "valueString": "Copyright 2014-2022 Michigan Health Information Network Shared Services. Licensed under the Apache License, Version 2.0 (the 'License'); you may not use this file except in compliance with the License. You may obtain a copy of the License at  http://www.apache.org/licenses/LICENSE-2.0.  Unless required by applicable law or agreed to in writing, software distributed under the License is distributed on an 'AS IS' BASIS, WITHOUT WARRANTIES OR CONDITIONS OF ANY KIND, either express or implied. See the License for the specific language governing permissions and limitations under the License."
          }
        ],
        "identifier": [
          {
            "use": "official",
            "system": "http://mihin.org/fhir/sid/elementId",
            "value": "937d4add-9250-4c13-bd00-a5d74bba75fa"
          }
        ],
        "status": "completed",
        "vaccineCode": {
          "coding": [
            {
              "system": "http://hl7.org/fhir/sid/cvx",
              "code": "113",
              "display": "Td (adult) preservative free"
            }
          ]
        },
        "patient": {
          "reference": "Patient/22983",
          "display": "Irene Anne Freeman"
        },
        "encounter": {
          "reference": "Encounter/619407",
          "display": "Wellness Encounter created 2018/12/23 00:00 for 2019/12/13"
        },
        "recorded": "2019-12-10T14:40:00+00:00",
        "primarySource": true,
        "location": {
          "reference": "Location/18918",
          "display": "Bayside Medical Group"
        },
        "performer": [
          {
            "actor": {
              "reference": "Practitioner/20851",
              "identifier": {
                "system": "http://hl7.org/fhir/sid/us-npi",
                "value": "9999999800"
              },
              "display": "Frances Angela Roth MD"
            }
          }
        ]
      }
    },
    {
      "fullUrl": "https://gw.interop.community/Harrison4Saffron/data/Condition/1399504",
      "resource": {
        "resourceType": "Condition",
        "id": "1399504",
        "meta": {
          "versionId": "1",
          "lastUpdated": "2023-04-05T20:12:06+00:00",
          "source": "#7AihFxBlHBhGGBAy"
        },
        "text": {
          "status": "generated",
          "div": "<div xmlns=\"http://www.w3.org/1999/xhtml\">This is a simple narrative with only plain text</div>"
        },
        "extension": [
          {
            "url": "http://mihin.org/extension/copyright",
            "valueString": "Copyright 2014-2022 Michigan Health Information Network Shared Services. Licensed under the Apache License, Version 2.0 (the 'License'); you may not use this file except in compliance with the License. You may obtain a copy of the License at  http://www.apache.org/licenses/LICENSE-2.0.  Unless required by applicable law or agreed to in writing, software distributed under the License is distributed on an 'AS IS' BASIS, WITHOUT WARRANTIES OR CONDITIONS OF ANY KIND, either express or implied. See the License for the specific language governing permissions and limitations under the License."
          }
        ],
        "identifier": [
          {
            "use": "official",
            "system": "http://mihin.org/fhir/sid/elementId",
            "value": "a1e7bae4-d171-4b7c-9237-7f609685f989"
          }
        ],
        "clinicalStatus": {
          "coding": [
            {
              "system": "http://hl7.org/fhir/ValueSet/condition-clinical",
              "code": "active",
              "display": "Active"
            }
          ]
        },
        "verificationStatus": {
          "coding": [
            {
              "system": "http://hl7.org/fhir/ValueSet/condition-ver-status",
              "code": "confirmed",
              "display": "Confirmed"
            }
          ]
        },
        "category": [
          {
            "coding": [
              {
                "system": "http://hl7.org/fhir/ValueSet/condition-category",
                "code": "encounter-diagnosis",
                "display": "Encounter Diagnosis"
              }
            ]
          }
        ],
        "code": {
          "coding": [
            {
              "system": "http://snomed.info/sct",
              "code": "359817006",
              "display": "Closed fracture of hip"
            },
            {
              "system": "http://hl7.org/fhir/sid/icd-10",
              "code": "M84.459A",
              "display": "Closed fracture of hip"
            }
          ]
        },
        "subject": {
          "reference": "Patient/22983",
          "display": "Irene Anne Freeman"
        },
        "encounter": {
          "reference": "Encounter/1399502",
          "display": "Injuries [ED_Visit_For_Broken_Bone [Encounter]]"
        },
        "onsetDateTime": "2019-05-19T00:00:00+00:00",
        "recordedDate": "2019-05-19T00:00:00+00:00",
        "asserter": {
          "reference": "Practitioner/19558",
          "identifier": {
            "system": "http://hl7.org/fhir/sid/us-npi",
            "value": "9999999977"
          },
          "display": "Derrick Franklin Cameron MD"
        }
      }
    },
    {
      "fullUrl": "https://gw.interop.community/Harrison4Saffron/data/MedicationRequest/727225",
      "resource": {
        "resourceType": "MedicationRequest",
        "id": "727225",
        "meta": {
          "versionId": "1",
          "lastUpdated": "2023-04-05T00:13:40+00:00",
          "source": "#qVtH4lITTliEumye"
        },
        "text": {
          "status": "generated",
          "div": "<div xmlns=\"http://www.w3.org/1999/xhtml\">This is a simple narrative with only plain text</div>"
        },
        "extension": [
          {
            "url": "http://mihin.org/extension/copyright",
            "valueString": "Copyright 2014-2022 Michigan Health Information Network Shared Services. Licensed under the Apache License, Version 2.0 (the 'License'); you may not use this file except in compliance with the License. You may obtain a copy of the License at  http://www.apache.org/licenses/LICENSE-2.0.  Unless required by applicable law or agreed to in writing, software distributed under the License is distributed on an 'AS IS' BASIS, WITHOUT WARRANTIES OR CONDITIONS OF ANY KIND, either express or implied. See the License for the specific language governing permissions and limitations under the License."
          },
          {
            "url": "http://build.fhir.org/ig/HL7/davinci-crd/R4/ext-insurance.html",
            "valueReference": {
              "reference": "Coverage/507442",
              "display": "Irene Anne Freeman Coverage"
            }
          }
        ],
        "identifier": [
          {
            "use": "official",
            "system": "http://mihin.org/fhir/sid/elementId",
            "value": "4ed489c3-4094-45b1-b5da-398cf7460e95"
          }
        ],
        "status": "active",
        "intent": "order",
        "medicationCodeableConcept": {
          "coding": [
            {
              "system": "http://www.nlm.nih.gov/research/umls/rxnorm",
              "code": "248656",
              "display": "Azithromycin 500 MG Oral Tablet"
            }
          ]
        },
        "subject": {
          "reference": "Patient/22983",
          "display": "Irene Anne Freeman"
        },
        "encounter": {
          "reference": "Encounter/727191",
          "display": "Genital  Herpes [Ambulatory_Encounter [Encounter]]"
        },
        "authoredOn": "2020-04-20T06:20:00+00:00",
        "requester": {
          "reference": "Practitioner/20851",
          "identifier": {
            "system": "http://hl7.org/fhir/sid/us-npi",
            "value": "9999999800"
          },
          "display": "Frances Angela Roth MD"
        },
        "reasonCode": [
          {
            "coding": [
              {
                "system": "http://snomed.info/sct",
                "code": "33839006",
                "display": "Genital herpes simplex (disorder)"
              }
            ]
          },
          {
            "coding": [
              {
                "system": "http://hl7.org/fhir/sid/icd-10",
                "code": "A60.9",
                "display": "Genital herpes simplex (disorder)"
              }
            ]
          }
        ],
        "insurance": [
          {
            "reference": "Coverage/507442",
            "display": "Irene Anne Freeman Coverage"
          }
        ]
      }
    },
    {
      "fullUrl": "https://gw.interop.community/Harrison4Saffron/data/Patient/22983",
      "resource": {
        "resourceType": "Patient",
        "id": "22983",
        "meta": {
          "versionId": "2",
          "lastUpdated": "2023-05-06T04:24:05+00:00",
          "source": "#cgz0QJSySI2aFYuz"
        },
        "text": {
          "status": "generated",
          "div": "<div xmlns=\"http://www.w3.org/1999/xhtml\">This is a simple narrative with only plain text</div>"
        },
        "extension": [
          {
            "url": "http://mihin.org/extension/copyright",
            "valueString": "Copyright 2014-2022 Michigan Health Information Network Shared Services. Licensed under the Apache License, Version 2.0 (the 'License'); you may not use this file except in compliance with the License. You may obtain a copy of the License at  http://www.apache.org/licenses/LICENSE-2.0.  Unless required by applicable law or agreed to in writing, software distributed under the License is distributed on an 'AS IS' BASIS, WITHOUT WARRANTIES OR CONDITIONS OF ANY KIND, either express or implied. See the License for the specific language governing permissions and limitations under the License."
          },
          {
            "url": "http://hl7.org/fhir/us/core/StructureDefinition/us-core-race",
            "valueCodeableConcept": {
              "coding": [
                {
                  "system": "http://terminology.hl7.org/CodeSystem/omb-race-category",
                  "code": "2106-3",
                  "display": "White"
                }
              ]
            }
          },
          {
            "url": "http://hl7.org/fhir/us/core/StructureDefinition/us-core-ethnicity",
            "valueCodeableConcept": {
              "coding": [
                {
                  "system": "http://terminology.hl7.org/CodeSystem/omb-ethnicity-category",
                  "code": "2186-5",
                  "display": "Not Hispanic or Latino"
                }
              ]
            }
          },
          {
            "url": "http://hl7.org/fhir/StructureDefinition/patient-religion",
            "valueCodeableConcept": {
              "coding": [
                {
                  "system": "http://terminology.hl7.org/CodeSystem/v3-ReligiousAffiliation",
                  "code": "1077",
                  "display": "Protestant"
                }
              ]
            }
          }
        ],
        "identifier": [
          {
            "use": "official",
            "type": {
              "coding": [
                {
                  "system": "http://terminology.hl7.org/CodeSystem/v2-0203",
                  "code": "SB",
                  "display": "Social Beneficiary Identifier"
                }
              ]
            },
            "system": "http://hl7.org/fhir/sid/us-ssn",
            "value": "000001080"
          },
          {
            "use": "official",
            "type": {
              "coding": [
                {
                  "system": "http://terminology.hl7.org/CodeSystem/v2-0203",
                  "code": "SB",
                  "display": "Social Beneficiary Identifier"
                }
              ]
            },
            "system": "http://mihin.org/fhir/cks",
            "value": "5fb0e4e771d2434bb9face5868b63bab"
          }
        ],
        "active": true,
        "name": [
          {
            "use": "official",
            "family": "Freeman",
            "given": [
              "Irene",
              "Anne"
            ]
          }
        ],
        "telecom": [
          {
            "system": "phone",
            "value": "248-555-2238",
            "use": "home"
          },
          {
            "system": "phone",
            "value": "248-555-0867",
            "use": "mobile"
          }
        ],
        "gender": "female",
        "birthDate": "1947-06-26",
        "address": [
          {
            "use": "home",
            "type": "postal",
            "line": [
              "329 Ocean Street"
            ],
            "city": "Rochester",
            "district": "Harrison",
            "state": "Anywhere",
            "postalCode": "48307"
          }
        ]
      }
    },
    {
      "fullUrl": "https://gw.interop.community/Harrison4Saffron/data/Immunization/1843729",
      "resource": {
        "resourceType": "Immunization",
        "id": "1843729",
        "meta": {
          "versionId": "1",
          "lastUpdated": "2023-04-06T08:31:34+00:00",
          "source": "#nxx3h6aCdClpG99m"
        },
        "text": {
          "status": "generated",
          "div": "<div xmlns=\"http://www.w3.org/1999/xhtml\">This is a simple narrative with only plain text</div>"
        },
        "extension": [
          {
            "url": "http://mihin.org/extension/copyright",
            "valueString": "Copyright 2014-2022 Michigan Health Information Network Shared Services. Licensed under the Apache License, Version 2.0 (the 'License'); you may not use this file except in compliance with the License. You may obtain a copy of the License at  http://www.apache.org/licenses/LICENSE-2.0.  Unless required by applicable law or agreed to in writing, software distributed under the License is distributed on an 'AS IS' BASIS, WITHOUT WARRANTIES OR CONDITIONS OF ANY KIND, either express or implied. See the License for the specific language governing permissions and limitations under the License."
          }
        ],
        "identifier": [
          {
            "use": "official",
            "system": "http://mihin.org/fhir/sid/elementId",
            "value": "88acf136-cfef-4c41-9ba8-24d561fd3b83"
          }
        ],
        "status": "completed",
        "vaccineCode": {
          "coding": [
            {
              "system": "http://hl7.org/fhir/sid/cvx",
              "code": "113",
              "display": "Td (adult) preservative free"
            }
          ]
        },
        "patient": {
          "reference": "Patient/22983",
          "display": "Irene Anne Freeman"
        },
        "encounter": {
          "reference": "Encounter/1843786",
          "display": "Wellness Encounter created 2019/12/22 00:00 for 2020/12/09"
        },
        "recorded": "2020-12-07T08:40:00+00:00",
        "primarySource": true,
        "location": {
          "reference": "Location/18918",
          "display": "Bayside Medical Group"
        },
        "performer": [
          {
            "actor": {
              "reference": "Practitioner/20851",
              "identifier": {
                "system": "http://hl7.org/fhir/sid/us-npi",
                "value": "9999999800"
              },
              "display": "Frances Angela Roth MD"
            }
          }
        ]
      }
    },
    {
      "fullUrl": "https://gw.interop.community/Harrison4Saffron/data/MedicationRequest/414119",
      "resource": {
        "resourceType": "MedicationRequest",
        "id": "414119",
        "meta": {
          "versionId": "1",
          "lastUpdated": "2023-04-04T14:26:08+00:00",
          "source": "#R928ojzXgQCZeOcv"
        },
        "text": {
          "status": "generated",
          "div": "<div xmlns=\"http://www.w3.org/1999/xhtml\">This is a simple narrative with only plain text</div>"
        },
        "extension": [
          {
            "url": "http://mihin.org/extension/copyright",
            "valueString": "Copyright 2014-2022 Michigan Health Information Network Shared Services. Licensed under the Apache License, Version 2.0 (the 'License'); you may not use this file except in compliance with the License. You may obtain a copy of the License at  http://www.apache.org/licenses/LICENSE-2.0.  Unless required by applicable law or agreed to in writing, software distributed under the License is distributed on an 'AS IS' BASIS, WITHOUT WARRANTIES OR CONDITIONS OF ANY KIND, either express or implied. See the License for the specific language governing permissions and limitations under the License."
          },
          {
            "url": "http://build.fhir.org/ig/HL7/davinci-crd/R4/ext-insurance.html",
            "valueReference": {
              "reference": "Coverage/111690",
              "display": "Irene Anne Freeman Coverage"
            }
          }
        ],
        "identifier": [
          {
            "use": "official",
            "system": "http://mihin.org/fhir/sid/elementId",
            "value": "531ba8cf-1a95-4b7f-81ad-e0fbeced01c5"
          }
        ],
        "status": "active",
        "intent": "order",
        "medicationCodeableConcept": {
          "coding": [
            {
              "system": "http://www.nlm.nih.gov/research/umls/rxnorm",
              "code": "258337",
              "display": "Hydrochlorothiazide / Triamterene"
            }
          ]
        },
        "subject": {
          "reference": "Patient/22983",
          "display": "Irene Anne Freeman"
        },
        "encounter": {
          "reference": "Encounter/414086",
          "display": "Wellness Encounter created 2017/12/24 00:00 for 2018/12/11"
        },
        "authoredOn": "2018-12-13T15:40:00+00:00",
        "requester": {
          "reference": "Practitioner/20851",
          "identifier": {
            "system": "http://hl7.org/fhir/sid/us-npi",
            "value": "9999999800"
          },
          "display": "Frances Angela Roth MD"
        },
        "reasonCode": [
          {
            "coding": [
              {
                "system": "http://snomed.info/sct:731000124108",
                "code": "46481004",
                "display": "Low-renin essential hypertension"
              }
            ]
          }
        ],
        "insurance": [
          {
            "reference": "Coverage/111690",
            "display": "Irene Anne Freeman Coverage"
          }
        ],
        "dosageInstruction": [
          {
            "sequence": 1,
            "timing": {
              "repeat": {
                "frequency": 1,
                "period": 1,
                "periodUnit": "d"
              }
            },
            "asNeededBoolean": false,
            "doseAndRate": [
              {
                "doseQuantity": {
                  "value": 1
                }
              }
            ]
          }
        ],
        "dispenseRequest": {
          "validityPeriod": {
            "start": "2018-12-13T15:40:00+00:00",
            "end": "2018-12-13T15:40:00+00:00"
          }
        }
      }
    },
    {
      "fullUrl": "https://gw.interop.community/Harrison4Saffron/data/MedicationRequest/619500",
      "resource": {
        "resourceType": "MedicationRequest",
        "id": "619500",
        "meta": {
          "versionId": "1",
          "lastUpdated": "2023-04-04T20:56:25+00:00",
          "source": "#ggD7o2R3PAdWQOgG"
        },
        "text": {
          "status": "generated",
          "div": "<div xmlns=\"http://www.w3.org/1999/xhtml\">This is a simple narrative with only plain text</div>"
        },
        "extension": [
          {
            "url": "http://mihin.org/extension/copyright",
            "valueString": "Copyright 2014-2022 Michigan Health Information Network Shared Services. Licensed under the Apache License, Version 2.0 (the 'License'); you may not use this file except in compliance with the License. You may obtain a copy of the License at  http://www.apache.org/licenses/LICENSE-2.0.  Unless required by applicable law or agreed to in writing, software distributed under the License is distributed on an 'AS IS' BASIS, WITHOUT WARRANTIES OR CONDITIONS OF ANY KIND, either express or implied. See the License for the specific language governing permissions and limitations under the License."
          },
          {
            "url": "http://build.fhir.org/ig/HL7/davinci-crd/R4/ext-insurance.html",
            "valueReference": {
              "reference": "Coverage/303656",
              "display": "Irene Anne Freeman Coverage"
            }
          }
        ],
        "identifier": [
          {
            "use": "official",
            "system": "http://mihin.org/fhir/sid/elementId",
            "value": "725ffc43-4b50-4f84-9ba9-291971649365"
          }
        ],
        "status": "active",
        "intent": "order",
        "medicationCodeableConcept": {
          "coding": [
            {
              "system": "http://www.nlm.nih.gov/research/umls/rxnorm",
              "code": "979487",
              "display": "Losartan Potassium 25 MG Oral Tablet [Cozaar]"
            }
          ]
        },
        "subject": {
          "reference": "Patient/22983",
          "display": "Irene Anne Freeman"
        },
        "encounter": {
          "reference": "Encounter/619407",
          "display": "Wellness Encounter created 2018/12/23 00:00 for 2019/12/13"
        },
        "authoredOn": "2019-12-10T14:40:00+00:00",
        "requester": {
          "reference": "Practitioner/20851",
          "identifier": {
            "system": "http://hl7.org/fhir/sid/us-npi",
            "value": "9999999800"
          },
          "display": "Frances Angela Roth MD"
        },
        "reasonCode": [
          {
            "coding": [
              {
                "system": "http://snomed.info/sct:731000124108",
                "code": "59720008",
                "display": "Sustained diastolic hypertension"
              }
            ]
          }
        ],
        "insurance": [
          {
            "reference": "Coverage/303656",
            "display": "Irene Anne Freeman Coverage"
          }
        ],
        "dosageInstruction": [
          {
            "sequence": 1,
            "timing": {
              "repeat": {
                "frequency": 1,
                "period": 1,
                "periodUnit": "d"
              }
            },
            "asNeededBoolean": false,
            "doseAndRate": [
              {
                "doseQuantity": {
                  "value": 1
                }
              }
            ]
          }
        ],
        "dispenseRequest": {
          "validityPeriod": {
            "start": "2019-12-10T14:40:00+00:00",
            "end": "2019-12-10T14:40:00+00:00"
          }
        }
      }
    },
    {
      "fullUrl": "https://gw.interop.community/Harrison4Saffron/data/MedicationRequest/203371",
      "resource": {
        "resourceType": "MedicationRequest",
        "id": "203371",
        "meta": {
          "versionId": "1",
          "lastUpdated": "2023-04-04T07:37:37+00:00",
          "source": "#jfngQ0gQaF6vXD3p"
        },
        "text": {
          "status": "generated",
          "div": "<div xmlns=\"http://www.w3.org/1999/xhtml\">This is a simple narrative with only plain text</div>"
        },
        "extension": [
          {
            "url": "http://mihin.org/extension/copyright",
            "valueString": "Copyright 2014-2022 Michigan Health Information Network Shared Services. Licensed under the Apache License, Version 2.0 (the 'License'); you may not use this file except in compliance with the License. You may obtain a copy of the License at  http://www.apache.org/licenses/LICENSE-2.0.  Unless required by applicable law or agreed to in writing, software distributed under the License is distributed on an 'AS IS' BASIS, WITHOUT WARRANTIES OR CONDITIONS OF ANY KIND, either express or implied. See the License for the specific language governing permissions and limitations under the License."
          },
          {
            "url": "http://build.fhir.org/ig/HL7/davinci-crd/R4/ext-insurance.html",
            "valueReference": {
              "reference": "Coverage/27383",
              "display": "Irene Anne Freeman Coverage"
            }
          },
          {
            "url": "http://build.fhir.org/ig/HL7/davinci-crd/R4/ext-insurance.html",
            "valueReference": {
              "reference": "Coverage/27247",
              "display": "Irene Anne Freeman Coverage"
            }
          }
        ],
        "identifier": [
          {
            "use": "official",
            "system": "http://mihin.org/fhir/sid/elementId",
            "value": "93db7f8d-8093-4566-8d82-c9611257c635"
          }
        ],
        "status": "active",
        "intent": "order",
        "medicationCodeableConcept": {
          "coding": [
            {
              "system": "http://www.nlm.nih.gov/research/umls/rxnorm",
              "code": "860518",
              "display": "24 HR carvedilol phosphate 20 MG Extended Release Oral Capsule [Coreg]"
            }
          ]
        },
        "subject": {
          "reference": "Patient/22983",
          "display": "Irene Anne Freeman"
        },
        "encounter": {
          "reference": "Encounter/203167",
          "display": "Wellness Encounter created 2017/01/08 00:00 for 2017/12/11"
        },
        "authoredOn": "2017-12-11T14:20:00+00:00",
        "requester": {
          "reference": "Practitioner/20851",
          "identifier": {
            "system": "http://hl7.org/fhir/sid/us-npi",
            "value": "9999999800"
          },
          "display": "Frances Angela Roth MD"
        },
        "reasonCode": [
          {
            "coding": [
              {
                "system": "http://hl7.org/fhir/sid/icd-9-cm",
                "code": "401.9",
                "display": "Unspecified essential hypertension"
              }
            ]
          }
        ],
        "insurance": [
          {
            "reference": "Coverage/27383",
            "display": "Irene Anne Freeman Coverage"
          },
          {
            "reference": "Coverage/27247",
            "display": "Irene Anne Freeman Coverage"
          }
        ],
        "dosageInstruction": [
          {
            "sequence": 1,
            "timing": {
              "repeat": {
                "frequency": 1,
                "period": 1,
                "periodUnit": "d"
              }
            },
            "asNeededBoolean": false,
            "doseAndRate": [
              {
                "doseQuantity": {
                  "value": 1
                }
              }
            ]
          }
        ],
        "dispenseRequest": {
          "validityPeriod": {
            "start": "2017-12-11T14:20:00+00:00",
            "end": "2017-12-11T14:20:00+00:00"
          }
        }
      }
    },
    {
      "fullUrl": "https://gw.interop.community/Harrison4Saffron/data/MedicationRequest/256650",
      "resource": {
        "resourceType": "MedicationRequest",
        "id": "256650",
        "meta": {
          "versionId": "1",
          "lastUpdated": "2023-04-04T09:15:47+00:00",
          "source": "#lKGb9iSpGe3S34N4"
        },
        "text": {
          "status": "generated",
          "div": "<div xmlns=\"http://www.w3.org/1999/xhtml\">This is a simple narrative with only plain text</div>"
        },
        "extension": [
          {
            "url": "http://mihin.org/extension/copyright",
            "valueString": "Copyright 2014-2022 Michigan Health Information Network Shared Services. Licensed under the Apache License, Version 2.0 (the 'License'); you may not use this file except in compliance with the License. You may obtain a copy of the License at  http://www.apache.org/licenses/LICENSE-2.0.  Unless required by applicable law or agreed to in writing, software distributed under the License is distributed on an 'AS IS' BASIS, WITHOUT WARRANTIES OR CONDITIONS OF ANY KIND, either express or implied. See the License for the specific language governing permissions and limitations under the License."
          },
          {
            "url": "http://build.fhir.org/ig/HL7/davinci-crd/R4/ext-insurance.html",
            "valueReference": {
              "reference": "Coverage/111690",
              "display": "Irene Anne Freeman Coverage"
            }
          }
        ],
        "identifier": [
          {
            "use": "official",
            "system": "http://mihin.org/fhir/sid/elementId",
            "value": "91ced7c8-755b-4373-a170-096a9278551d"
          }
        ],
        "status": "active",
        "intent": "order",
        "medicationCodeableConcept": {
          "coding": [
            {
              "system": "http://www.nlm.nih.gov/research/umls/rxnorm",
              "code": "311372",
              "display": "Loratadine 10 MG Oral Tablet"
            }
          ]
        },
        "subject": {
          "reference": "Patient/22983",
          "display": "Irene Anne Freeman"
        },
        "encounter": {
          "reference": "Encounter/256629",
          "display": "Allergies and Treatment [Allergist_Initial_Visit [Encounter]]"
        },
        "authoredOn": "2018-03-11T15:23:00+00:00",
        "requester": {
          "reference": "Practitioner/20271",
          "identifier": {
            "system": "http://hl7.org/fhir/sid/us-npi",
            "value": "9999999465"
          },
          "display": "Daniel Cain Odom MD"
        },
        "insurance": [
          {
            "reference": "Coverage/111690",
            "display": "Irene Anne Freeman Coverage"
          }
        ]
      }
    },
    {
      "fullUrl": "https://gw.interop.community/Harrison4Saffron/data/MedicationRequest/2513196",
      "resource": {
        "resourceType": "MedicationRequest",
        "id": "2513196",
        "meta": {
          "versionId": "1",
          "lastUpdated": "2023-04-07T02:59:17+00:00",
          "source": "#pTf1LZbwH6Jh74Ug"
        },
        "text": {
          "status": "generated",
          "div": "<div xmlns=\"http://www.w3.org/1999/xhtml\">This is a simple narrative with only plain text</div>"
        },
        "extension": [
          {
            "url": "http://mihin.org/extension/copyright",
            "valueString": "Copyright 2014-2022 Michigan Health Information Network Shared Services. Licensed under the Apache License, Version 2.0 (the 'License'); you may not use this file except in compliance with the License. You may obtain a copy of the License at  http://www.apache.org/licenses/LICENSE-2.0.  Unless required by applicable law or agreed to in writing, software distributed under the License is distributed on an 'AS IS' BASIS, WITHOUT WARRANTIES OR CONDITIONS OF ANY KIND, either express or implied. See the License for the specific language governing permissions and limitations under the License."
          },
          {
            "url": "http://build.fhir.org/ig/HL7/davinci-crd/R4/ext-insurance.html",
            "valueReference": {
              "reference": "Coverage/2463134",
              "display": "Irene Anne Freeman Coverage"
            }
          }
        ],
        "identifier": [
          {
            "use": "official",
            "system": "http://mihin.org/fhir/sid/elementId",
            "value": "8d230ad4-89fa-45ce-9714-f7ecf15fdd4e"
          }
        ],
        "status": "active",
        "intent": "order",
        "medicationCodeableConcept": {
          "coding": [
            {
              "system": "http://www.nlm.nih.gov/research/umls/rxnorm",
              "code": "248656",
              "display": "Azithromycin 500 MG Oral Tablet"
            }
          ]
        },
        "subject": {
          "reference": "Patient/22983",
          "display": "Irene Anne Freeman"
        },
        "encounter": {
          "reference": "Encounter/2513189",
          "display": "Genital  Herpes [Ambulatory_Encounter [Encounter]]"
        },
        "authoredOn": "2021-06-28T04:20:00+00:00",
        "requester": {
          "reference": "Practitioner/20851",
          "identifier": {
            "system": "http://hl7.org/fhir/sid/us-npi",
            "value": "9999999800"
          },
          "display": "Frances Angela Roth MD"
        },
        "reasonCode": [
          {
            "coding": [
              {
                "system": "http://snomed.info/sct",
                "code": "33839006",
                "display": "Genital herpes simplex (disorder)"
              }
            ]
          },
          {
            "coding": [
              {
                "system": "http://hl7.org/fhir/sid/icd-10",
                "code": "A60.9",
                "display": "Genital herpes simplex (disorder)"
              }
            ]
          }
        ],
        "insurance": [
          {
            "reference": "Coverage/2463134",
            "display": "Irene Anne Freeman Coverage"
          }
        ]
      }
    },
    {
      "fullUrl": "https://gw.interop.community/Harrison4Saffron/data/Immunization/203134",
      "resource": {
        "resourceType": "Immunization",
        "id": "203134",
        "meta": {
          "versionId": "1",
          "lastUpdated": "2023-04-04T07:37:37+00:00",
          "source": "#jfngQ0gQaF6vXD3p"
        },
        "text": {
          "status": "generated",
          "div": "<div xmlns=\"http://www.w3.org/1999/xhtml\">This is a simple narrative with only plain text</div>"
        },
        "extension": [
          {
            "url": "http://mihin.org/extension/copyright",
            "valueString": "Copyright 2014-2022 Michigan Health Information Network Shared Services. Licensed under the Apache License, Version 2.0 (the 'License'); you may not use this file except in compliance with the License. You may obtain a copy of the License at  http://www.apache.org/licenses/LICENSE-2.0.  Unless required by applicable law or agreed to in writing, software distributed under the License is distributed on an 'AS IS' BASIS, WITHOUT WARRANTIES OR CONDITIONS OF ANY KIND, either express or implied. See the License for the specific language governing permissions and limitations under the License."
          }
        ],
        "identifier": [
          {
            "use": "official",
            "system": "http://mihin.org/fhir/sid/elementId",
            "value": "35df524f-b06d-4696-b8a0-1f82b7a4d362"
          }
        ],
        "status": "completed",
        "vaccineCode": {
          "coding": [
            {
              "system": "http://hl7.org/fhir/sid/cvx",
              "code": "33",
              "display": "pneumococcal polysaccharide vaccine, 23 valent"
            }
          ]
        },
        "patient": {
          "reference": "Patient/22983",
          "display": "Irene Anne Freeman"
        },
        "encounter": {
          "reference": "Encounter/203167",
          "display": "Wellness Encounter created 2017/01/08 00:00 for 2017/12/11"
        },
        "recorded": "2017-12-11T14:20:00+00:00",
        "primarySource": true,
        "location": {
          "reference": "Location/18918",
          "display": "Bayside Medical Group"
        },
        "performer": [
          {
            "actor": {
              "reference": "Practitioner/20851",
              "identifier": {
                "system": "http://hl7.org/fhir/sid/us-npi",
                "value": "9999999800"
              },
              "display": "Frances Angela Roth MD"
            }
          }
        ]
      }
    },
    {
      "fullUrl": "https://gw.interop.community/Harrison4Saffron/data/Organization/17366",
      "resource": {
        "resourceType": "Organization",
        "id": "17366",
        "meta": {
          "versionId": "4",
          "lastUpdated": "2023-05-05T16:28:43+00:00",
          "source": "#zjEoFelrS8yinA7O"
        },
        "text": {
          "status": "generated",
          "div": "<div xmlns=\"http://www.w3.org/1999/xhtml\">This is a simple narrative with only plain text</div>"
        },
        "extension": [
          {
            "url": "http://mihin.org/extension/copyright",
            "valueString": "Copyright 2014-2022 Michigan Health Information Network Shared Services. Licensed under the Apache License, Version 2.0 (the 'License'); you may not use this file except in compliance with the License. You may obtain a copy of the License at  http://www.apache.org/licenses/LICENSE-2.0.  Unless required by applicable law or agreed to in writing, software distributed under the License is distributed on an 'AS IS' BASIS, WITHOUT WARRANTIES OR CONDITIONS OF ANY KIND, either express or implied. See the License for the specific language governing permissions and limitations under the License."
          }
        ],
        "identifier": [
          {
            "use": "official",
            "system": "http://www.hl7.org/oid/",
            "value": "1.2.3.4.5.9.99.999.9999.1244"
          },
          {
            "use": "official",
            "type": {
              "coding": [
                {
                  "system": "http://terminology.hl7.org/CodeSystem/v2-0203",
                  "code": "PRN",
                  "display": "Provider number"
                }
              ]
            },
            "system": "http://terminology.hl7.org/CodeSystem/v2-0203",
            "value": "8999991244"
          },
          {
            "use": "official",
            "type": {
              "coding": [
                {
                  "system": "http://terminology.hl7.org/CodeSystem/v2-0203",
                  "code": "TAX",
                  "display": "Tax ID number"
                }
              ]
            },
            "system": "http://terminology.hl7.org/CodeSystem/v2-0203",
            "value": "000001244"
          }
        ],
        "active": true,
        "type": [
          {
            "coding": [
              {
                "system": "http://terminology.hl7.org/CodeSystem/organization-type",
                "code": "prov",
                "display": "Healthcare Provider"
              }
            ]
          }
        ],
        "name": "Soldier Ambulatory Services",
        "telecom": [
          {
            "system": "phone",
            "value": "989-555-9437",
            "use": "work"
          }
        ],
        "address": [
          {
            "line": [
              "691 SE Spanish Avenue"
            ],
            "city": "Hemlock",
            "district": "Harrison",
            "state": "Anywhere",
            "postalCode": "48626"
          }
        ],
        "endpoint": [
          {
            "reference": "Endpoint/17484",
            "display": "Soldier Ambulatory Services"
          }
        ]
      }
    },
    {
      "fullUrl": "https://gw.interop.community/Harrison4Saffron/data/MedicationRequest/619501",
      "resource": {
        "resourceType": "MedicationRequest",
        "id": "619501",
        "meta": {
          "versionId": "1",
          "lastUpdated": "2023-04-04T20:56:25+00:00",
          "source": "#ggD7o2R3PAdWQOgG"
        },
        "text": {
          "status": "generated",
          "div": "<div xmlns=\"http://www.w3.org/1999/xhtml\">This is a simple narrative with only plain text</div>"
        },
        "extension": [
          {
            "url": "http://mihin.org/extension/copyright",
            "valueString": "Copyright 2014-2022 Michigan Health Information Network Shared Services. Licensed under the Apache License, Version 2.0 (the 'License'); you may not use this file except in compliance with the License. You may obtain a copy of the License at  http://www.apache.org/licenses/LICENSE-2.0.  Unless required by applicable law or agreed to in writing, software distributed under the License is distributed on an 'AS IS' BASIS, WITHOUT WARRANTIES OR CONDITIONS OF ANY KIND, either express or implied. See the License for the specific language governing permissions and limitations under the License."
          },
          {
            "url": "http://build.fhir.org/ig/HL7/davinci-crd/R4/ext-insurance.html",
            "valueReference": {
              "reference": "Coverage/303656",
              "display": "Irene Anne Freeman Coverage"
            }
          }
        ],
        "identifier": [
          {
            "use": "official",
            "system": "http://mihin.org/fhir/sid/elementId",
            "value": "483825ef-3aaa-4eb9-bf85-8d66975ee103"
          }
        ],
        "status": "active",
        "intent": "order",
        "medicationCodeableConcept": {
          "coding": [
            {
              "system": "http://www.nlm.nih.gov/research/umls/rxnorm",
              "code": "860518",
              "display": "24 HR carvedilol phosphate 20 MG Extended Release Oral Capsule [Coreg]"
            }
          ]
        },
        "subject": {
          "reference": "Patient/22983",
          "display": "Irene Anne Freeman"
        },
        "encounter": {
          "reference": "Encounter/619407",
          "display": "Wellness Encounter created 2018/12/23 00:00 for 2019/12/13"
        },
        "authoredOn": "2019-12-10T14:40:00+00:00",
        "requester": {
          "reference": "Practitioner/20851",
          "identifier": {
            "system": "http://hl7.org/fhir/sid/us-npi",
            "value": "9999999800"
          },
          "display": "Frances Angela Roth MD"
        },
        "reasonCode": [
          {
            "coding": [
              {
                "system": "http://snomed.info/sct:731000124108",
                "code": "59720008",
                "display": "Sustained diastolic hypertension"
              }
            ]
          }
        ],
        "insurance": [
          {
            "reference": "Coverage/303656",
            "display": "Irene Anne Freeman Coverage"
          }
        ],
        "dosageInstruction": [
          {
            "sequence": 1,
            "timing": {
              "repeat": {
                "frequency": 1,
                "period": 1,
                "periodUnit": "d"
              }
            },
            "asNeededBoolean": false,
            "doseAndRate": [
              {
                "doseQuantity": {
                  "value": 1
                }
              }
            ]
          }
        ],
        "dispenseRequest": {
          "validityPeriod": {
            "start": "2019-12-10T14:40:00+00:00",
            "end": "2019-12-10T14:40:00+00:00"
          }
        }
      }
    },
    {
      "fullUrl": "https://gw.interop.community/Harrison4Saffron/data/MedicationRequest/501103",
      "resource": {
        "resourceType": "MedicationRequest",
        "id": "501103",
        "meta": {
          "versionId": "1",
          "lastUpdated": "2023-04-04T17:13:13+00:00",
          "source": "#JAKFyE4t3pKY4gME"
        },
        "text": {
          "status": "generated",
          "div": "<div xmlns=\"http://www.w3.org/1999/xhtml\">This is a simple narrative with only plain text</div>"
        },
        "extension": [
          {
            "url": "http://mihin.org/extension/copyright",
            "valueString": "Copyright 2014-2022 Michigan Health Information Network Shared Services. Licensed under the Apache License, Version 2.0 (the 'License'); you may not use this file except in compliance with the License. You may obtain a copy of the License at  http://www.apache.org/licenses/LICENSE-2.0.  Unless required by applicable law or agreed to in writing, software distributed under the License is distributed on an 'AS IS' BASIS, WITHOUT WARRANTIES OR CONDITIONS OF ANY KIND, either express or implied. See the License for the specific language governing permissions and limitations under the License."
          },
          {
            "url": "http://build.fhir.org/ig/HL7/davinci-crd/R4/ext-insurance.html",
            "valueReference": {
              "reference": "Coverage/303656",
              "display": "Irene Anne Freeman Coverage"
            }
          }
        ],
        "identifier": [
          {
            "use": "official",
            "system": "http://mihin.org/fhir/sid/elementId",
            "value": "a26f6ef3-4a57-46c4-867f-a5f8fadd74c7"
          }
        ],
        "status": "active",
        "intent": "order",
        "medicationCodeableConcept": {
          "coding": [
            {
              "system": "http://www.nlm.nih.gov/research/umls/rxnorm",
              "code": "849574",
              "display": "Naproxen sodium 220 MG Oral Tablet"
            }
          ]
        },
        "subject": {
          "reference": "Patient/22983",
          "display": "Irene Anne Freeman"
        },
        "encounter": {
          "reference": "Encounter/500862",
          "display": "Injuries [ED_Visit_For_Broken_Bone [Encounter]]"
        },
        "authoredOn": "2019-05-19T01:00:00+00:00",
        "requester": {
          "reference": "Practitioner/19443",
          "identifier": {
            "system": "http://hl7.org/fhir/sid/us-npi",
            "value": "9999999984"
          },
          "display": "Greg Clements Perry MD"
        },
        "insurance": [
          {
            "reference": "Coverage/303656",
            "display": "Irene Anne Freeman Coverage"
          }
        ]
      }
    },
    {
      "fullUrl": "https://gw.interop.community/Harrison4Saffron/data/MedicationRequest/414117",
      "resource": {
        "resourceType": "MedicationRequest",
        "id": "414117",
        "meta": {
          "versionId": "1",
          "lastUpdated": "2023-04-04T14:26:08+00:00",
          "source": "#R928ojzXgQCZeOcv"
        },
        "text": {
          "status": "generated",
          "div": "<div xmlns=\"http://www.w3.org/1999/xhtml\">This is a simple narrative with only plain text</div>"
        },
        "extension": [
          {
            "url": "http://mihin.org/extension/copyright",
            "valueString": "Copyright 2014-2022 Michigan Health Information Network Shared Services. Licensed under the Apache License, Version 2.0 (the 'License'); you may not use this file except in compliance with the License. You may obtain a copy of the License at  http://www.apache.org/licenses/LICENSE-2.0.  Unless required by applicable law or agreed to in writing, software distributed under the License is distributed on an 'AS IS' BASIS, WITHOUT WARRANTIES OR CONDITIONS OF ANY KIND, either express or implied. See the License for the specific language governing permissions and limitations under the License."
          },
          {
            "url": "http://build.fhir.org/ig/HL7/davinci-crd/R4/ext-insurance.html",
            "valueReference": {
              "reference": "Coverage/111690",
              "display": "Irene Anne Freeman Coverage"
            }
          }
        ],
        "identifier": [
          {
            "use": "official",
            "system": "http://mihin.org/fhir/sid/elementId",
            "value": "8d359049-aa61-4aa5-afb3-c172f2758546"
          }
        ],
        "status": "active",
        "intent": "order",
        "medicationCodeableConcept": {
          "coding": [
            {
              "system": "http://www.nlm.nih.gov/research/umls/rxnorm",
              "code": "860518",
              "display": "24 HR carvedilol phosphate 20 MG Extended Release Oral Capsule [Coreg]"
            }
          ]
        },
        "subject": {
          "reference": "Patient/22983",
          "display": "Irene Anne Freeman"
        },
        "encounter": {
          "reference": "Encounter/414086",
          "display": "Wellness Encounter created 2017/12/24 00:00 for 2018/12/11"
        },
        "authoredOn": "2018-12-13T15:40:00+00:00",
        "requester": {
          "reference": "Practitioner/20851",
          "identifier": {
            "system": "http://hl7.org/fhir/sid/us-npi",
            "value": "9999999800"
          },
          "display": "Frances Angela Roth MD"
        },
        "reasonCode": [
          {
            "coding": [
              {
                "system": "http://snomed.info/sct:731000124108",
                "code": "1201005",
                "display": "Benign essential hypertension"
              }
            ]
          }
        ],
        "insurance": [
          {
            "reference": "Coverage/111690",
            "display": "Irene Anne Freeman Coverage"
          }
        ],
        "dosageInstruction": [
          {
            "sequence": 1,
            "timing": {
              "repeat": {
                "frequency": 1,
                "period": 1,
                "periodUnit": "d"
              }
            },
            "asNeededBoolean": false,
            "doseAndRate": [
              {
                "doseQuantity": {
                  "value": 1
                }
              }
            ]
          }
        ],
        "dispenseRequest": {
          "validityPeriod": {
            "start": "2018-12-13T15:40:00+00:00",
            "end": "2018-12-13T15:40:00+00:00"
          }
        }
      }
    },
    {
      "fullUrl": "https://gw.interop.community/Harrison4Saffron/data/Condition/203369",
      "resource": {
        "resourceType": "Condition",
        "id": "203369",
        "meta": {
          "versionId": "2",
          "lastUpdated": "2023-05-06T18:46:12+00:00",
          "source": "#tfWP8sOtL28AWH5P"
        },
        "text": {
          "status": "generated",
          "div": "<div xmlns=\"http://www.w3.org/1999/xhtml\">This is a simple narrative with only plain text</div>"
        },
        "extension": [
          {
            "url": "http://mihin.org/extension/copyright",
            "valueString": "Copyright 2014-2022 Michigan Health Information Network Shared Services. Licensed under the Apache License, Version 2.0 (the 'License'); you may not use this file except in compliance with the License. You may obtain a copy of the License at  http://www.apache.org/licenses/LICENSE-2.0.  Unless required by applicable law or agreed to in writing, software distributed under the License is distributed on an 'AS IS' BASIS, WITHOUT WARRANTIES OR CONDITIONS OF ANY KIND, either express or implied. See the License for the specific language governing permissions and limitations under the License."
          }
        ],
        "identifier": [
          {
            "use": "official",
            "system": "http://mihin.org/fhir/sid/elementId",
            "value": "64d17f9b-6faf-4316-a89c-a9a256c6d6c2"
          }
        ],
        "clinicalStatus": {
          "coding": [
            {
              "system": "http://terminology.hl7.org/CodeSystem/condition-clinical",
              "code": "active",
              "display": "Active"
            }
          ]
        },
        "verificationStatus": {
          "coding": [
            {
              "system": "http://terminology.hl7.org/CodeSystem/condition-ver-status",
              "code": "confirmed",
              "display": "Confirmed"
            }
          ]
        },
        "category": [
          {
            "coding": [
              {
                "system": "http://terminology.hl7.org/CodeSystem/condition-category",
                "code": "encounter-diagnosis",
                "display": "Encounter Diagnosis"
              }
            ]
          }
        ],
        "code": {
          "coding": [
            {
              "system": "http://snomed.info/sct:731000124108",
              "code": "429457004",
              "display": "Systolic essential hypertension"
            }
          ]
        },
        "subject": {
          "reference": "Patient/22983",
          "display": "Irene Anne Freeman"
        },
        "encounter": {
          "reference": "Encounter/203167",
          "display": "Wellness Encounter created 2017/01/08 00:00 for 2017/12/11"
        },
        "onsetDateTime": "2017-12-11T14:20:00+00:00",
        "recordedDate": "2017-12-11T14:20:00+00:00",
        "asserter": {
          "reference": "Practitioner/20851",
          "identifier": {
            "system": "http://terminology.hl7.org/CodeSystem/v2-0203",
            "value": "9999999800"
          },
          "display": "Frances Angela Roth MD"
        }
      }
    },
    {
      "fullUrl": "https://gw.interop.community/Harrison4Saffron/data/Encounter/37607",
      "resource": {
        "resourceType": "Encounter",
        "id": "37607",
        "meta": {
          "versionId": "3",
          "lastUpdated": "2023-05-06T02:43:46+00:00",
          "source": "#xofgWermblKfNEhn"
        },
        "text": {
          "status": "generated",
          "div": "<div xmlns=\"http://www.w3.org/1999/xhtml\">This is a simple narrative with only plain text</div>"
        },
        "extension": [
          {
            "url": "http://mihin.org/extension/copyright",
            "valueString": "Copyright 2014-2022 Michigan Health Information Network Shared Services. Licensed under the Apache License, Version 2.0 (the 'License'); you may not use this file except in compliance with the License. You may obtain a copy of the License at  http://www.apache.org/licenses/LICENSE-2.0.  Unless required by applicable law or agreed to in writing, software distributed under the License is distributed on an 'AS IS' BASIS, WITHOUT WARRANTIES OR CONDITIONS OF ANY KIND, either express or implied. See the License for the specific language governing permissions and limitations under the License."
          }
        ],
        "identifier": [
          {
            "use": "official",
            "value": "64aff977-6cbd-432b-8c6e-e82586d59732"
          }
        ],
        "status": "finished",
        "class": {
          "system": "http://terminology.hl7.org/CodeSystem/v3-ActCode",
          "code": "ambulatory",
          "display": "Ambulatory"
        },
        "type": [
          {
            "coding": [
              {
                "system": "http://snomed.info/sct",
                "code": "185347001",
                "display": "Encounter for problem"
              }
            ]
          }
        ],
        "subject": {
          "reference": "Patient/22983",
          "display": "Irene Anne Freeman"
        },
        "participant": [
          {
            "type": [
              {
                "coding": [
                  {
                    "system": "http://terminology.hl7.org/CodeSystem/v3-ParticipationType",
                    "code": "ATND",
                    "display": "attender"
                  }
                ]
              }
            ],
            "period": {
              "start": "2023-05-03T00:00:00+00:00",
              "end": "2023-05-03T00:00:00+00:00"
            },
            "individual": {
              "reference": "Practitioner/20096",
              "identifier": {
                "system": "http://terminology.hl7.org/CodeSystem/v2-0203",
                "value": "9999999460"
              },
              "display": "Larry Mario Parks MD"
            }
          }
        ],
        "appointment": [
          {
            "reference": "Appointment/37557",
            "display": "Appointment-762"
          }
        ],
        "period": {
          "start": "2023-05-03T00:00:00+00:00",
          "end": "2023-05-03T00:00:00+00:00"
        },
        "reasonCode": [
          {
            "coding": [
              {
                "system": "http://snomed.info/sct",
                "code": "95417003",
                "display": "Influenza (Disorder)"
              }
            ]
          },
          {
            "coding": [
              {
                "system": "http://hl7.org/fhir/sid/icd-10",
                "code": "J10.1",
                "display": "Influenza (Disorder)"
              }
            ]
          }
        ],
        "location": [
          {
            "location": {
              "reference": "Location/18687",
              "display": "Soldier Ambulatory Services"
            }
          }
        ],
        "serviceProvider": {
          "reference": "Organization/17366",
          "display": "Soldier Ambulatory Services"
        }
      }
    },
    {
      "fullUrl": "https://gw.interop.community/Harrison4Saffron/data/MedicationRequest/203370",
      "resource": {
        "resourceType": "MedicationRequest",
        "id": "203370",
        "meta": {
          "versionId": "1",
          "lastUpdated": "2023-04-04T07:37:37+00:00",
          "source": "#jfngQ0gQaF6vXD3p"
        },
        "text": {
          "status": "generated",
          "div": "<div xmlns=\"http://www.w3.org/1999/xhtml\">This is a simple narrative with only plain text</div>"
        },
        "extension": [
          {
            "url": "http://mihin.org/extension/copyright",
            "valueString": "Copyright 2014-2022 Michigan Health Information Network Shared Services. Licensed under the Apache License, Version 2.0 (the 'License'); you may not use this file except in compliance with the License. You may obtain a copy of the License at  http://www.apache.org/licenses/LICENSE-2.0.  Unless required by applicable law or agreed to in writing, software distributed under the License is distributed on an 'AS IS' BASIS, WITHOUT WARRANTIES OR CONDITIONS OF ANY KIND, either express or implied. See the License for the specific language governing permissions and limitations under the License."
          },
          {
            "url": "http://build.fhir.org/ig/HL7/davinci-crd/R4/ext-insurance.html",
            "valueReference": {
              "reference": "Coverage/27383",
              "display": "Irene Anne Freeman Coverage"
            }
          },
          {
            "url": "http://build.fhir.org/ig/HL7/davinci-crd/R4/ext-insurance.html",
            "valueReference": {
              "reference": "Coverage/27247",
              "display": "Irene Anne Freeman Coverage"
            }
          }
        ],
        "identifier": [
          {
            "use": "official",
            "system": "http://mihin.org/fhir/sid/elementId",
            "value": "c600ba20-a777-4f54-82f2-921b77e65c28"
          }
        ],
        "status": "active",
        "intent": "order",
        "medicationCodeableConcept": {
          "coding": [
            {
              "system": "http://www.nlm.nih.gov/research/umls/rxnorm",
              "code": "979487",
              "display": "Losartan Potassium 25 MG Oral Tablet [Cozaar]"
            }
          ]
        },
        "subject": {
          "reference": "Patient/22983",
          "display": "Irene Anne Freeman"
        },
        "encounter": {
          "reference": "Encounter/203167",
          "display": "Wellness Encounter created 2017/01/08 00:00 for 2017/12/11"
        },
        "authoredOn": "2017-12-11T14:20:00+00:00",
        "requester": {
          "reference": "Practitioner/20851",
          "identifier": {
            "system": "http://hl7.org/fhir/sid/us-npi",
            "value": "9999999800"
          },
          "display": "Frances Angela Roth MD"
        },
        "reasonCode": [
          {
            "coding": [
              {
                "system": "http://snomed.info/sct:731000124108",
                "code": "712832005",
                "display": "Supine hypertension"
              }
            ]
          }
        ],
        "insurance": [
          {
            "reference": "Coverage/27383",
            "display": "Irene Anne Freeman Coverage"
          },
          {
            "reference": "Coverage/27247",
            "display": "Irene Anne Freeman Coverage"
          }
        ],
        "dosageInstruction": [
          {
            "sequence": 1,
            "timing": {
              "repeat": {
                "frequency": 1,
                "period": 1,
                "periodUnit": "d"
              }
            },
            "asNeededBoolean": false,
            "doseAndRate": [
              {
                "doseQuantity": {
                  "value": 1
                }
              }
            ]
          }
        ],
        "dispenseRequest": {
          "validityPeriod": {
            "start": "2017-12-11T14:20:00+00:00",
            "end": "2017-12-11T14:20:00+00:00"
          }
        }
      }
    },
    {
      "fullUrl": "https://gw.interop.community/Harrison4Saffron/data/Condition/2068084",
      "resource": {
        "resourceType": "Condition",
        "id": "2068084",
        "meta": {
          "versionId": "1",
          "lastUpdated": "2023-04-06T14:48:22+00:00",
          "source": "#g1czAlqjJc3CRpxu"
        },
        "text": {
          "status": "generated",
          "div": "<div xmlns=\"http://www.w3.org/1999/xhtml\">This is a simple narrative with only plain text</div>"
        },
        "extension": [
          {
            "url": "http://mihin.org/extension/copyright",
            "valueString": "Copyright 2014-2022 Michigan Health Information Network Shared Services. Licensed under the Apache License, Version 2.0 (the 'License'); you may not use this file except in compliance with the License. You may obtain a copy of the License at  http://www.apache.org/licenses/LICENSE-2.0.  Unless required by applicable law or agreed to in writing, software distributed under the License is distributed on an 'AS IS' BASIS, WITHOUT WARRANTIES OR CONDITIONS OF ANY KIND, either express or implied. See the License for the specific language governing permissions and limitations under the License."
          }
        ],
        "identifier": [
          {
            "use": "official",
            "system": "http://mihin.org/fhir/sid/elementId",
            "value": "9f24f68d-ec67-4996-8653-a728e57d5759"
          }
        ],
        "clinicalStatus": {
          "coding": [
            {
              "system": "http://hl7.org/fhir/ValueSet/condition-clinical",
              "code": "active",
              "display": "Active"
            }
          ]
        },
        "verificationStatus": {
          "coding": [
            {
              "system": "http://hl7.org/fhir/ValueSet/condition-ver-status",
              "code": "confirmed",
              "display": "Confirmed"
            }
          ]
        },
        "category": [
          {
            "coding": [
              {
                "system": "http://hl7.org/fhir/ValueSet/condition-category",
                "code": "encounter-diagnosis",
                "display": "Encounter Diagnosis"
              }
            ]
          }
        ],
        "code": {
          "coding": [
            {
              "system": "http://snomed.info/sct",
              "code": "33839006",
              "display": "Genital herpes simplex (disorder)"
            },
            {
              "system": "http://hl7.org/fhir/sid/icd-10",
              "code": "A60.9",
              "display": "Genital herpes simplex (disorder)"
            }
          ]
        },
        "subject": {
          "reference": "Patient/22983",
          "display": "Irene Anne Freeman"
        },
        "encounter": {
          "reference": "Encounter/2068082",
          "display": "Genital  Herpes [Ambulatory_Encounter [Encounter]]"
        },
        "onsetDateTime": "2021-01-26T10:40:00+00:00",
        "recordedDate": "2021-01-26T10:40:00+00:00",
        "asserter": {
          "reference": "Practitioner/20851",
          "identifier": {
            "system": "http://hl7.org/fhir/sid/us-npi",
            "value": "9999999800"
          },
          "display": "Frances Angela Roth MD"
        }
      }
    },
    {
      "fullUrl": "https://gw.interop.community/Harrison4Saffron/data/Condition/414115",
      "resource": {
        "resourceType": "Condition",
        "id": "414115",
        "meta": {
          "versionId": "1",
          "lastUpdated": "2023-04-04T14:26:08+00:00",
          "source": "#R928ojzXgQCZeOcv"
        },
        "text": {
          "status": "generated",
          "div": "<div xmlns=\"http://www.w3.org/1999/xhtml\">This is a simple narrative with only plain text</div>"
        },
        "extension": [
          {
            "url": "http://mihin.org/extension/copyright",
            "valueString": "Copyright 2014-2022 Michigan Health Information Network Shared Services. Licensed under the Apache License, Version 2.0 (the 'License'); you may not use this file except in compliance with the License. You may obtain a copy of the License at  http://www.apache.org/licenses/LICENSE-2.0.  Unless required by applicable law or agreed to in writing, software distributed under the License is distributed on an 'AS IS' BASIS, WITHOUT WARRANTIES OR CONDITIONS OF ANY KIND, either express or implied. See the License for the specific language governing permissions and limitations under the License."
          }
        ],
        "identifier": [
          {
            "use": "official",
            "system": "http://mihin.org/fhir/sid/elementId",
            "value": "88e481f5-60a1-4d41-ad25-78978462ee2c"
          }
        ],
        "clinicalStatus": {
          "coding": [
            {
              "system": "http://hl7.org/fhir/ValueSet/condition-clinical",
              "code": "active",
              "display": "Active"
            }
          ]
        },
        "verificationStatus": {
          "coding": [
            {
              "system": "http://hl7.org/fhir/ValueSet/condition-ver-status",
              "code": "confirmed",
              "display": "Confirmed"
            }
          ]
        },
        "category": [
          {
            "coding": [
              {
                "system": "http://hl7.org/fhir/ValueSet/condition-category",
                "code": "encounter-diagnosis",
                "display": "Encounter Diagnosis"
              }
            ]
          }
        ],
        "code": {
          "coding": [
            {
              "system": "http://snomed.info/sct:731000124108",
              "code": "59720008",
              "display": "Sustained diastolic hypertension"
            }
          ]
        },
        "subject": {
          "reference": "Patient/22983",
          "display": "Irene Anne Freeman"
        },
        "encounter": {
          "reference": "Encounter/414086",
          "display": "Wellness Encounter created 2017/12/24 00:00 for 2018/12/11"
        },
        "onsetDateTime": "2018-12-13T15:40:00+00:00",
        "recordedDate": "2018-12-13T15:40:00+00:00",
        "asserter": {
          "reference": "Practitioner/20851",
          "identifier": {
            "system": "http://hl7.org/fhir/sid/us-npi",
            "value": "9999999800"
          },
          "display": "Frances Angela Roth MD"
        }
      }
    },
    {
      "fullUrl": "https://gw.interop.community/Harrison4Saffron/data/MedicationRequest/223607",
      "resource": {
        "resourceType": "MedicationRequest",
        "id": "223607",
        "meta": {
          "versionId": "1",
          "lastUpdated": "2023-04-04T08:14:10+00:00",
          "source": "#9sB6L2VBdAMUhpsP"
        },
        "text": {
          "status": "generated",
          "div": "<div xmlns=\"http://www.w3.org/1999/xhtml\">This is a simple narrative with only plain text</div>"
        },
        "extension": [
          {
            "url": "http://mihin.org/extension/copyright",
            "valueString": "Copyright 2014-2022 Michigan Health Information Network Shared Services. Licensed under the Apache License, Version 2.0 (the 'License'); you may not use this file except in compliance with the License. You may obtain a copy of the License at  http://www.apache.org/licenses/LICENSE-2.0.  Unless required by applicable law or agreed to in writing, software distributed under the License is distributed on an 'AS IS' BASIS, WITHOUT WARRANTIES OR CONDITIONS OF ANY KIND, either express or implied. See the License for the specific language governing permissions and limitations under the License."
          },
          {
            "url": "http://build.fhir.org/ig/HL7/davinci-crd/R4/ext-insurance.html",
            "valueReference": {
              "reference": "Coverage/111690",
              "display": "Irene Anne Freeman Coverage"
            }
          }
        ],
        "identifier": [
          {
            "use": "official",
            "system": "http://mihin.org/fhir/sid/elementId",
            "value": "db2a278e-d4ec-4e21-9876-53057ab96365"
          }
        ],
        "status": "active",
        "intent": "order",
        "medicationCodeableConcept": {
          "coding": [
            {
              "system": "http://www.nlm.nih.gov/research/umls/rxnorm",
              "code": "313782",
              "display": "Acetaminophen 325 MG Oral Tablet"
            }
          ]
        },
        "subject": {
          "reference": "Patient/22983",
          "display": "Irene Anne Freeman"
        },
        "encounter": {
          "reference": "Encounter/223501",
          "display": "Injuries [ED_Visit_For_Broken_Bone [Encounter]]"
        },
        "authoredOn": "2018-01-21T00:21:00+00:00",
        "requester": {
          "reference": "Practitioner/19479",
          "identifier": {
            "system": "http://hl7.org/fhir/sid/us-npi",
            "value": "9999999989"
          },
          "display": "Craig Todd McKinney MD"
        },
        "insurance": [
          {
            "reference": "Coverage/111690",
            "display": "Irene Anne Freeman Coverage"
          }
        ]
      }
    },
    {
      "fullUrl": "https://gw.interop.community/Harrison4Saffron/data/MedicationRequest/1843856",
      "resource": {
        "resourceType": "MedicationRequest",
        "id": "1843856",
        "meta": {
          "versionId": "1",
          "lastUpdated": "2023-04-06T08:31:34+00:00",
          "source": "#nxx3h6aCdClpG99m"
        },
        "text": {
          "status": "generated",
          "div": "<div xmlns=\"http://www.w3.org/1999/xhtml\">This is a simple narrative with only plain text</div>"
        },
        "extension": [
          {
            "url": "http://mihin.org/extension/copyright",
            "valueString": "Copyright 2014-2022 Michigan Health Information Network Shared Services. Licensed under the Apache License, Version 2.0 (the 'License'); you may not use this file except in compliance with the License. You may obtain a copy of the License at  http://www.apache.org/licenses/LICENSE-2.0.  Unless required by applicable law or agreed to in writing, software distributed under the License is distributed on an 'AS IS' BASIS, WITHOUT WARRANTIES OR CONDITIONS OF ANY KIND, either express or implied. See the License for the specific language governing permissions and limitations under the License."
          },
          {
            "url": "http://build.fhir.org/ig/HL7/davinci-crd/R4/ext-insurance.html",
            "valueReference": {
              "reference": "Coverage/507442",
              "display": "Irene Anne Freeman Coverage"
            }
          }
        ],
        "identifier": [
          {
            "use": "official",
            "system": "http://mihin.org/fhir/sid/elementId",
            "value": "c6a55da9-aac6-488f-b833-e8f045314176"
          }
        ],
        "status": "active",
        "intent": "order",
        "medicationCodeableConcept": {
          "coding": [
            {
              "system": "http://www.nlm.nih.gov/research/umls/rxnorm",
              "code": "104416",
              "display": "amLODIPine Besylate"
            }
          ]
        },
        "subject": {
          "reference": "Patient/22983",
          "display": "Irene Anne Freeman"
        },
        "encounter": {
          "reference": "Encounter/1843786",
          "display": "Wellness Encounter created 2019/12/22 00:00 for 2020/12/09"
        },
        "authoredOn": "2020-12-07T08:40:00+00:00",
        "requester": {
          "reference": "Practitioner/20851",
          "identifier": {
            "system": "http://hl7.org/fhir/sid/us-npi",
            "value": "9999999800"
          },
          "display": "Frances Angela Roth MD"
        },
        "reasonCode": [
          {
            "coding": [
              {
                "system": "http://hl7.org/fhir/sid/icd-10-cm",
                "code": "I10",
                "display": "Essential (primary) hypertension"
              }
            ]
          }
        ],
        "insurance": [
          {
            "reference": "Coverage/507442",
            "display": "Irene Anne Freeman Coverage"
          }
        ],
        "dosageInstruction": [
          {
            "sequence": 1,
            "timing": {
              "repeat": {
                "frequency": 1,
                "period": 1,
                "periodUnit": "d"
              }
            },
            "asNeededBoolean": false,
            "doseAndRate": [
              {
                "doseQuantity": {
                  "value": 1
                }
              }
            ]
          }
        ],
        "dispenseRequest": {
          "validityPeriod": {
            "start": "2020-12-07T08:40:00+00:00",
            "end": "2020-12-07T08:40:00+00:00"
          }
        }
      }
    },
    {
      "fullUrl": "https://gw.interop.community/Harrison4Saffron/data/Immunization/2368174",
      "resource": {
        "resourceType": "Immunization",
        "id": "2368174",
        "meta": {
          "versionId": "1",
          "lastUpdated": "2023-04-06T23:05:27+00:00",
          "source": "#Y4xdGcmYjMBZLYED"
        },
        "text": {
          "status": "generated",
          "div": "<div xmlns=\"http://www.w3.org/1999/xhtml\">This is a simple narrative with only plain text</div>"
        },
        "extension": [
          {
            "url": "http://mihin.org/extension/copyright",
            "valueString": "Copyright 2014-2022 Michigan Health Information Network Shared Services. Licensed under the Apache License, Version 2.0 (the 'License'); you may not use this file except in compliance with the License. You may obtain a copy of the License at  http://www.apache.org/licenses/LICENSE-2.0.  Unless required by applicable law or agreed to in writing, software distributed under the License is distributed on an 'AS IS' BASIS, WITHOUT WARRANTIES OR CONDITIONS OF ANY KIND, either express or implied. See the License for the specific language governing permissions and limitations under the License."
          }
        ],
        "identifier": [
          {
            "use": "official",
            "system": "http://mihin.org/fhir/sid/elementId",
            "value": "8331bb55-b79b-492b-9a10-82ba04a7e207"
          }
        ],
        "status": "completed",
        "vaccineCode": {
          "coding": [
            {
              "system": "NDC",
              "code": "59267-1000-03",
              "display": "Pfizer-BioNTech Covid-19 Vaccine"
            }
          ]
        },
        "patient": {
          "reference": "Patient/22983",
          "display": "Irene Anne Freeman"
        },
        "encounter": {
          "reference": "Encounter/2368172",
          "display": "Covid-19 Immunizations [Second_Pfizer_Vaccination_Encounter [Encounter]]"
        },
        "recorded": "2021-05-17T15:00:00+00:00",
        "primarySource": true,
        "location": {
          "reference": "Location/18918",
          "display": "Bayside Medical Group"
        },
        "performer": [
          {
            "actor": {
              "reference": "Practitioner/20851",
              "identifier": {
                "system": "http://hl7.org/fhir/sid/us-npi",
                "value": "9999999800"
              },
              "display": "Frances Angela Roth MD"
            }
          }
        ]
      }
    },
    {
      "fullUrl": "https://gw.interop.community/Harrison4Saffron/data/Condition/784010",
      "resource": {
        "resourceType": "Condition",
        "id": "784010",
        "meta": {
          "versionId": "1",
          "lastUpdated": "2023-04-05T01:45:20+00:00",
          "source": "#rQD7ycNyoP28okc6"
        },
        "text": {
          "status": "generated",
          "div": "<div xmlns=\"http://www.w3.org/1999/xhtml\">This is a simple narrative with only plain text</div>"
        },
        "extension": [
          {
            "url": "http://mihin.org/extension/copyright",
            "valueString": "Copyright 2014-2022 Michigan Health Information Network Shared Services. Licensed under the Apache License, Version 2.0 (the 'License'); you may not use this file except in compliance with the License. You may obtain a copy of the License at  http://www.apache.org/licenses/LICENSE-2.0.  Unless required by applicable law or agreed to in writing, software distributed under the License is distributed on an 'AS IS' BASIS, WITHOUT WARRANTIES OR CONDITIONS OF ANY KIND, either express or implied. See the License for the specific language governing permissions and limitations under the License."
          }
        ],
        "identifier": [
          {
            "use": "official",
            "system": "http://mihin.org/fhir/sid/elementId",
            "value": "fc2c2f00-c3ae-41f3-aaad-fecaf705fab7"
          }
        ],
        "clinicalStatus": {
          "coding": [
            {
              "system": "http://hl7.org/fhir/ValueSet/condition-clinical",
              "code": "active",
              "display": "Active"
            }
          ]
        },
        "verificationStatus": {
          "coding": [
            {
              "system": "http://hl7.org/fhir/ValueSet/condition-ver-status",
              "code": "confirmed",
              "display": "Confirmed"
            }
          ]
        },
        "category": [
          {
            "coding": [
              {
                "system": "http://hl7.org/fhir/ValueSet/condition-category",
                "code": "encounter-diagnosis",
                "display": "Encounter Diagnosis"
              }
            ]
          }
        ],
        "code": {
          "coding": [
            {
              "system": "http://snomed.info/sct",
              "code": "840539006",
              "display": "COVID-19"
            }
          ]
        },
        "subject": {
          "reference": "Patient/22983",
          "display": "Irene Anne Freeman"
        },
        "encounter": {
          "reference": "Encounter/783131",
          "display": "infection [Encounter for Test [Encounter]]"
        },
        "onsetDateTime": "2020-04-19T01:06:00+00:00",
        "recordedDate": "2020-04-19T01:06:00+00:00",
        "asserter": {
          "reference": "Practitioner/19564",
          "identifier": {
            "system": "http://hl7.org/fhir/sid/us-npi",
            "value": "9999999982"
          },
          "display": "Courtney Welch Durham MD"
        }
      }
    },
    {
      "fullUrl": "https://gw.interop.community/Harrison4Saffron/data/Condition/727220",
      "resource": {
        "resourceType": "Condition",
        "id": "727220",
        "meta": {
          "versionId": "1",
          "lastUpdated": "2023-04-05T00:13:40+00:00",
          "source": "#qVtH4lITTliEumye"
        },
        "text": {
          "status": "generated",
          "div": "<div xmlns=\"http://www.w3.org/1999/xhtml\">This is a simple narrative with only plain text</div>"
        },
        "extension": [
          {
            "url": "http://mihin.org/extension/copyright",
            "valueString": "Copyright 2014-2022 Michigan Health Information Network Shared Services. Licensed under the Apache License, Version 2.0 (the 'License'); you may not use this file except in compliance with the License. You may obtain a copy of the License at  http://www.apache.org/licenses/LICENSE-2.0.  Unless required by applicable law or agreed to in writing, software distributed under the License is distributed on an 'AS IS' BASIS, WITHOUT WARRANTIES OR CONDITIONS OF ANY KIND, either express or implied. See the License for the specific language governing permissions and limitations under the License."
          }
        ],
        "identifier": [
          {
            "use": "official",
            "system": "http://mihin.org/fhir/sid/elementId",
            "value": "e1082aef-1e30-4c4e-8c1a-8ba6bd6682d2"
          }
        ],
        "clinicalStatus": {
          "coding": [
            {
              "system": "http://hl7.org/fhir/ValueSet/condition-clinical",
              "code": "active",
              "display": "Active"
            }
          ]
        },
        "verificationStatus": {
          "coding": [
            {
              "system": "http://hl7.org/fhir/ValueSet/condition-ver-status",
              "code": "confirmed",
              "display": "Confirmed"
            }
          ]
        },
        "category": [
          {
            "coding": [
              {
                "system": "http://hl7.org/fhir/ValueSet/condition-category",
                "code": "encounter-diagnosis",
                "display": "Encounter Diagnosis"
              }
            ]
          }
        ],
        "code": {
          "coding": [
            {
              "system": "http://snomed.info/sct",
              "code": "33839006",
              "display": "Genital herpes simplex (disorder)"
            },
            {
              "system": "http://hl7.org/fhir/sid/icd-10",
              "code": "A60.9",
              "display": "Genital herpes simplex (disorder)"
            }
          ]
        },
        "subject": {
          "reference": "Patient/22983",
          "display": "Irene Anne Freeman"
        },
        "encounter": {
          "reference": "Encounter/727191",
          "display": "Genital  Herpes [Ambulatory_Encounter [Encounter]]"
        },
        "onsetDateTime": "2020-03-27T12:20:00+00:00",
        "recordedDate": "2020-03-27T12:20:00+00:00",
        "asserter": {
          "reference": "Practitioner/20851",
          "identifier": {
            "system": "http://hl7.org/fhir/sid/us-npi",
            "value": "9999999800"
          },
          "display": "Frances Angela Roth MD"
        }
      }
    },
    {
      "fullUrl": "https://gw.interop.community/Harrison4Saffron/data/Condition/619479",
      "resource": {
        "resourceType": "Condition",
        "id": "619479",
        "meta": {
          "versionId": "1",
          "lastUpdated": "2023-04-04T20:56:25+00:00",
          "source": "#ggD7o2R3PAdWQOgG"
        },
        "text": {
          "status": "generated",
          "div": "<div xmlns=\"http://www.w3.org/1999/xhtml\">This is a simple narrative with only plain text</div>"
        },
        "extension": [
          {
            "url": "http://mihin.org/extension/copyright",
            "valueString": "Copyright 2014-2022 Michigan Health Information Network Shared Services. Licensed under the Apache License, Version 2.0 (the 'License'); you may not use this file except in compliance with the License. You may obtain a copy of the License at  http://www.apache.org/licenses/LICENSE-2.0.  Unless required by applicable law or agreed to in writing, software distributed under the License is distributed on an 'AS IS' BASIS, WITHOUT WARRANTIES OR CONDITIONS OF ANY KIND, either express or implied. See the License for the specific language governing permissions and limitations under the License."
          }
        ],
        "identifier": [
          {
            "use": "official",
            "system": "http://mihin.org/fhir/sid/elementId",
            "value": "a91c0fee-e646-4519-8feb-762152cf67d8"
          }
        ],
        "clinicalStatus": {
          "coding": [
            {
              "system": "http://hl7.org/fhir/ValueSet/condition-clinical",
              "code": "active",
              "display": "Active"
            }
          ]
        },
        "verificationStatus": {
          "coding": [
            {
              "system": "http://hl7.org/fhir/ValueSet/condition-ver-status",
              "code": "confirmed",
              "display": "Confirmed"
            }
          ]
        },
        "category": [
          {
            "coding": [
              {
                "system": "http://hl7.org/fhir/ValueSet/condition-category",
                "code": "encounter-diagnosis",
                "display": "Encounter Diagnosis"
              }
            ]
          }
        ],
        "code": {
          "coding": [
            {
              "system": "http://snomed.info/sct",
              "code": "sdohcc-sctt-41000243104",
              "display": "Severe food insecurity (finding)"
            }
          ]
        },
        "subject": {
          "reference": "Patient/22983",
          "display": "Irene Anne Freeman"
        },
        "encounter": {
          "reference": "Encounter/619407",
          "display": "Wellness Encounter created 2018/12/23 00:00 for 2019/12/13"
        },
        "onsetDateTime": "2019-12-10T14:40:00+00:00",
        "recordedDate": "2019-12-10T14:40:00+00:00",
        "asserter": {
          "reference": "Practitioner/20851",
          "identifier": {
            "system": "http://hl7.org/fhir/sid/us-npi",
            "value": "9999999800"
          },
          "display": "Frances Angela Roth MD"
        }
      }
    },
    {
      "fullUrl": "https://gw.interop.community/Harrison4Saffron/data/Condition/783085",
      "resource": {
        "resourceType": "Condition",
        "id": "783085",
        "meta": {
          "versionId": "1",
          "lastUpdated": "2023-04-05T01:45:20+00:00",
          "source": "#rQD7ycNyoP28okc6"
        },
        "text": {
          "status": "generated",
          "div": "<div xmlns=\"http://www.w3.org/1999/xhtml\">This is a simple narrative with only plain text</div>"
        },
        "extension": [
          {
            "url": "http://mihin.org/extension/copyright",
            "valueString": "Copyright 2014-2022 Michigan Health Information Network Shared Services. Licensed under the Apache License, Version 2.0 (the 'License'); you may not use this file except in compliance with the License. You may obtain a copy of the License at  http://www.apache.org/licenses/LICENSE-2.0.  Unless required by applicable law or agreed to in writing, software distributed under the License is distributed on an 'AS IS' BASIS, WITHOUT WARRANTIES OR CONDITIONS OF ANY KIND, either express or implied. See the License for the specific language governing permissions and limitations under the License."
          }
        ],
        "identifier": [
          {
            "use": "official",
            "system": "http://mihin.org/fhir/sid/elementId",
            "value": "133a0aa7-4e3e-4dc4-8317-48b6b08b898b"
          }
        ],
        "clinicalStatus": {
          "coding": [
            {
              "system": "http://hl7.org/fhir/ValueSet/condition-clinical",
              "code": "active",
              "display": "Active"
            }
          ]
        },
        "verificationStatus": {
          "coding": [
            {
              "system": "http://hl7.org/fhir/ValueSet/condition-ver-status",
              "code": "confirmed",
              "display": "Confirmed"
            }
          ]
        },
        "category": [
          {
            "coding": [
              {
                "system": "http://hl7.org/fhir/ValueSet/condition-category",
                "code": "encounter-diagnosis",
                "display": "Encounter Diagnosis"
              }
            ]
          }
        ],
        "code": {
          "coding": [
            {
              "system": "http://snomed.info/sct",
              "code": "49727002",
              "display": "Cough (finding)"
            }
          ]
        },
        "subject": {
          "reference": "Patient/22983",
          "display": "Irene Anne Freeman"
        },
        "encounter": {
          "reference": "Encounter/783131",
          "display": "infection [Encounter for Test [Encounter]]"
        },
        "onsetDateTime": "2020-04-19T00:00:00+00:00",
        "recordedDate": "2020-04-19T00:00:00+00:00",
        "asserter": {
          "reference": "Practitioner/19564",
          "identifier": {
            "system": "http://hl7.org/fhir/sid/us-npi",
            "value": "9999999982"
          },
          "display": "Courtney Welch Durham MD"
        }
      }
    },
    {
      "fullUrl": "https://gw.interop.community/Harrison4Saffron/data/Immunization/619468",
      "resource": {
        "resourceType": "Immunization",
        "id": "619468",
        "meta": {
          "versionId": "1",
          "lastUpdated": "2023-04-04T20:56:25+00:00",
          "source": "#ggD7o2R3PAdWQOgG"
        },
        "text": {
          "status": "generated",
          "div": "<div xmlns=\"http://www.w3.org/1999/xhtml\">This is a simple narrative with only plain text</div>"
        },
        "extension": [
          {
            "url": "http://mihin.org/extension/copyright",
            "valueString": "Copyright 2014-2022 Michigan Health Information Network Shared Services. Licensed under the Apache License, Version 2.0 (the 'License'); you may not use this file except in compliance with the License. You may obtain a copy of the License at  http://www.apache.org/licenses/LICENSE-2.0.  Unless required by applicable law or agreed to in writing, software distributed under the License is distributed on an 'AS IS' BASIS, WITHOUT WARRANTIES OR CONDITIONS OF ANY KIND, either express or implied. See the License for the specific language governing permissions and limitations under the License."
          }
        ],
        "identifier": [
          {
            "use": "official",
            "system": "http://mihin.org/fhir/sid/elementId",
            "value": "ac7689ec-a2b0-4b9b-982a-40942415a5e4"
          }
        ],
        "status": "completed",
        "vaccineCode": {
          "coding": [
            {
              "system": "http://hl7.org/fhir/sid/cvx",
              "code": "140",
              "display": "Influenza, seasonal, injectable, preservative free"
            }
          ]
        },
        "patient": {
          "reference": "Patient/22983",
          "display": "Irene Anne Freeman"
        },
        "encounter": {
          "reference": "Encounter/619407",
          "display": "Wellness Encounter created 2018/12/23 00:00 for 2019/12/13"
        },
        "recorded": "2019-12-10T14:40:00+00:00",
        "primarySource": true,
        "location": {
          "reference": "Location/18918",
          "display": "Bayside Medical Group"
        },
        "performer": [
          {
            "actor": {
              "reference": "Practitioner/20851",
              "identifier": {
                "system": "http://hl7.org/fhir/sid/us-npi",
                "value": "9999999800"
              },
              "display": "Frances Angela Roth MD"
            }
          }
        ]
      }
    },
    {
      "fullUrl": "https://gw.interop.community/Harrison4Saffron/data/MedicationRequest/405603",
      "resource": {
        "resourceType": "MedicationRequest",
        "id": "405603",
        "meta": {
          "versionId": "1",
          "lastUpdated": "2023-04-04T14:09:12+00:00",
          "source": "#FHzBegag33Eam6Fl"
        },
        "text": {
          "status": "generated",
          "div": "<div xmlns=\"http://www.w3.org/1999/xhtml\">This is a simple narrative with only plain text</div>"
        },
        "extension": [
          {
            "url": "http://mihin.org/extension/copyright",
            "valueString": "Copyright 2014-2022 Michigan Health Information Network Shared Services. Licensed under the Apache License, Version 2.0 (the 'License'); you may not use this file except in compliance with the License. You may obtain a copy of the License at  http://www.apache.org/licenses/LICENSE-2.0.  Unless required by applicable law or agreed to in writing, software distributed under the License is distributed on an 'AS IS' BASIS, WITHOUT WARRANTIES OR CONDITIONS OF ANY KIND, either express or implied. See the License for the specific language governing permissions and limitations under the License."
          },
          {
            "url": "http://build.fhir.org/ig/HL7/davinci-crd/R4/ext-insurance.html",
            "valueReference": {
              "reference": "Coverage/303656",
              "display": "Irene Anne Freeman Coverage"
            }
          }
        ],
        "identifier": [
          {
            "use": "official",
            "system": "http://mihin.org/fhir/sid/elementId",
            "value": "f15e35fa-60a2-445c-9df3-ba45c2bc6465"
          }
        ],
        "status": "active",
        "intent": "order",
        "medicationCodeableConcept": {
          "coding": [
            {
              "system": "http://www.nlm.nih.gov/research/umls/rxnorm",
              "code": "248656",
              "display": "Azithromycin 500 MG Oral Tablet"
            }
          ]
        },
        "subject": {
          "reference": "Patient/22983",
          "display": "Irene Anne Freeman"
        },
        "encounter": {
          "reference": "Encounter/405496",
          "display": "Genital  Herpes [Ambulatory_Encounter [Encounter]]"
        },
        "authoredOn": "2018-12-09T09:20:00+00:00",
        "requester": {
          "reference": "Practitioner/20851",
          "identifier": {
            "system": "http://hl7.org/fhir/sid/us-npi",
            "value": "9999999800"
          },
          "display": "Frances Angela Roth MD"
        },
        "reasonCode": [
          {
            "coding": [
              {
                "system": "http://snomed.info/sct",
                "code": "33839006",
                "display": "Genital herpes simplex (disorder)"
              }
            ]
          },
          {
            "coding": [
              {
                "system": "http://hl7.org/fhir/sid/icd-10",
                "code": "A60.9",
                "display": "Genital herpes simplex (disorder)"
              }
            ]
          }
        ],
        "insurance": [
          {
            "reference": "Coverage/303656",
            "display": "Irene Anne Freeman Coverage"
          }
        ]
      }
    },
    {
      "fullUrl": "https://gw.interop.community/Harrison4Saffron/data/MedicationRequest/507602",
      "resource": {
        "resourceType": "MedicationRequest",
        "id": "507602",
        "meta": {
          "versionId": "1",
          "lastUpdated": "2023-04-04T17:26:18+00:00",
          "source": "#bFg9aCF0jwz3rKVD"
        },
        "text": {
          "status": "generated",
          "div": "<div xmlns=\"http://www.w3.org/1999/xhtml\">This is a simple narrative with only plain text</div>"
        },
        "extension": [
          {
            "url": "http://mihin.org/extension/copyright",
            "valueString": "Copyright 2014-2022 Michigan Health Information Network Shared Services. Licensed under the Apache License, Version 2.0 (the 'License'); you may not use this file except in compliance with the License. You may obtain a copy of the License at  http://www.apache.org/licenses/LICENSE-2.0.  Unless required by applicable law or agreed to in writing, software distributed under the License is distributed on an 'AS IS' BASIS, WITHOUT WARRANTIES OR CONDITIONS OF ANY KIND, either express or implied. See the License for the specific language governing permissions and limitations under the License."
          },
          {
            "url": "http://build.fhir.org/ig/HL7/davinci-crd/R4/ext-insurance.html",
            "valueReference": {
              "reference": "Coverage/303656",
              "display": "Irene Anne Freeman Coverage"
            }
          }
        ],
        "identifier": [
          {
            "use": "official",
            "system": "http://mihin.org/fhir/sid/elementId",
            "value": "643be7bf-e6c5-4e35-8c59-fef619adf48b"
          }
        ],
        "status": "active",
        "intent": "order",
        "medicationCodeableConcept": {
          "coding": [
            {
              "system": "http://www.nlm.nih.gov/research/umls/rxnorm",
              "code": "248656",
              "display": "Azithromycin 500 MG Oral Tablet"
            }
          ]
        },
        "subject": {
          "reference": "Patient/22983",
          "display": "Irene Anne Freeman"
        },
        "encounter": {
          "reference": "Encounter/507445",
          "display": "Genital  Herpes [Ambulatory_Encounter [Encounter]]"
        },
        "authoredOn": "2019-06-08T08:00:00+00:00",
        "requester": {
          "reference": "Practitioner/20851",
          "identifier": {
            "system": "http://hl7.org/fhir/sid/us-npi",
            "value": "9999999800"
          },
          "display": "Frances Angela Roth MD"
        },
        "reasonCode": [
          {
            "coding": [
              {
                "system": "http://snomed.info/sct",
                "code": "33839006",
                "display": "Genital herpes simplex (disorder)"
              }
            ]
          },
          {
            "coding": [
              {
                "system": "http://hl7.org/fhir/sid/icd-10",
                "code": "A60.9",
                "display": "Genital herpes simplex (disorder)"
              }
            ]
          }
        ],
        "insurance": [
          {
            "reference": "Coverage/303656",
            "display": "Irene Anne Freeman Coverage"
          }
        ]
      }
    },
    {
      "fullUrl": "https://gw.interop.community/Harrison4Saffron/data/Condition/783086",
      "resource": {
        "resourceType": "Condition",
        "id": "783086",
        "meta": {
          "versionId": "1",
          "lastUpdated": "2023-04-05T01:45:20+00:00",
          "source": "#rQD7ycNyoP28okc6"
        },
        "text": {
          "status": "generated",
          "div": "<div xmlns=\"http://www.w3.org/1999/xhtml\">This is a simple narrative with only plain text</div>"
        },
        "extension": [
          {
            "url": "http://mihin.org/extension/copyright",
            "valueString": "Copyright 2014-2022 Michigan Health Information Network Shared Services. Licensed under the Apache License, Version 2.0 (the 'License'); you may not use this file except in compliance with the License. You may obtain a copy of the License at  http://www.apache.org/licenses/LICENSE-2.0.  Unless required by applicable law or agreed to in writing, software distributed under the License is distributed on an 'AS IS' BASIS, WITHOUT WARRANTIES OR CONDITIONS OF ANY KIND, either express or implied. See the License for the specific language governing permissions and limitations under the License."
          }
        ],
        "identifier": [
          {
            "use": "official",
            "system": "http://mihin.org/fhir/sid/elementId",
            "value": "b0797489-b0d0-4c09-a2b6-dbc9a637f432"
          }
        ],
        "clinicalStatus": {
          "coding": [
            {
              "system": "http://hl7.org/fhir/ValueSet/condition-clinical",
              "code": "active",
              "display": "Active"
            }
          ]
        },
        "verificationStatus": {
          "coding": [
            {
              "system": "http://hl7.org/fhir/ValueSet/condition-ver-status",
              "code": "confirmed",
              "display": "Confirmed"
            }
          ]
        },
        "category": [
          {
            "coding": [
              {
                "system": "http://hl7.org/fhir/ValueSet/condition-category",
                "code": "encounter-diagnosis",
                "display": "Encounter Diagnosis"
              }
            ]
          }
        ],
        "code": {
          "coding": [
            {
              "system": "http://snomed.info/sct",
              "code": "386661006",
              "display": "Fever (finding)"
            }
          ]
        },
        "subject": {
          "reference": "Patient/22983",
          "display": "Irene Anne Freeman"
        },
        "encounter": {
          "reference": "Encounter/783131",
          "display": "infection [Encounter for Test [Encounter]]"
        },
        "onsetDateTime": "2020-04-19T00:00:00+00:00",
        "recordedDate": "2020-04-19T00:00:00+00:00",
        "asserter": {
          "reference": "Practitioner/19564",
          "identifier": {
            "system": "http://hl7.org/fhir/sid/us-npi",
            "value": "9999999982"
          },
          "display": "Courtney Welch Durham MD"
        }
      }
    },
    {
      "fullUrl": "https://gw.interop.community/Harrison4Saffron/data/Immunization/203133",
      "resource": {
        "resourceType": "Immunization",
        "id": "203133",
        "meta": {
          "versionId": "1",
          "lastUpdated": "2023-04-04T07:37:37+00:00",
          "source": "#jfngQ0gQaF6vXD3p"
        },
        "text": {
          "status": "generated",
          "div": "<div xmlns=\"http://www.w3.org/1999/xhtml\">This is a simple narrative with only plain text</div>"
        },
        "extension": [
          {
            "url": "http://mihin.org/extension/copyright",
            "valueString": "Copyright 2014-2022 Michigan Health Information Network Shared Services. Licensed under the Apache License, Version 2.0 (the 'License'); you may not use this file except in compliance with the License. You may obtain a copy of the License at  http://www.apache.org/licenses/LICENSE-2.0.  Unless required by applicable law or agreed to in writing, software distributed under the License is distributed on an 'AS IS' BASIS, WITHOUT WARRANTIES OR CONDITIONS OF ANY KIND, either express or implied. See the License for the specific language governing permissions and limitations under the License."
          }
        ],
        "identifier": [
          {
            "use": "official",
            "system": "http://mihin.org/fhir/sid/elementId",
            "value": "7437dd19-effd-462e-8f1d-a29a4f9cd12e"
          }
        ],
        "status": "completed",
        "vaccineCode": {
          "coding": [
            {
              "system": "http://hl7.org/fhir/sid/cvx",
              "code": "140",
              "display": "Influenza, seasonal, injectable, preservative free"
            }
          ]
        },
        "patient": {
          "reference": "Patient/22983",
          "display": "Irene Anne Freeman"
        },
        "encounter": {
          "reference": "Encounter/203167",
          "display": "Wellness Encounter created 2017/01/08 00:00 for 2017/12/11"
        },
        "recorded": "2017-12-11T14:20:00+00:00",
        "primarySource": true,
        "location": {
          "reference": "Location/18918",
          "display": "Bayside Medical Group"
        },
        "performer": [
          {
            "actor": {
              "reference": "Practitioner/20851",
              "identifier": {
                "system": "http://hl7.org/fhir/sid/us-npi",
                "value": "9999999800"
              },
              "display": "Frances Angela Roth MD"
            }
          }
        ]
      }
    },
    {
      "fullUrl": "https://gw.interop.community/Harrison4Saffron/data/Immunization/2293296",
      "resource": {
        "resourceType": "Immunization",
        "id": "2293296",
        "meta": {
          "versionId": "1",
          "lastUpdated": "2023-04-06T21:02:13+00:00",
          "source": "#pK8mDiJdX7jYWadB"
        },
        "text": {
          "status": "generated",
          "div": "<div xmlns=\"http://www.w3.org/1999/xhtml\">This is a simple narrative with only plain text</div>"
        },
        "extension": [
          {
            "url": "http://mihin.org/extension/copyright",
            "valueString": "Copyright 2014-2022 Michigan Health Information Network Shared Services. Licensed under the Apache License, Version 2.0 (the 'License'); you may not use this file except in compliance with the License. You may obtain a copy of the License at  http://www.apache.org/licenses/LICENSE-2.0.  Unless required by applicable law or agreed to in writing, software distributed under the License is distributed on an 'AS IS' BASIS, WITHOUT WARRANTIES OR CONDITIONS OF ANY KIND, either express or implied. See the License for the specific language governing permissions and limitations under the License."
          }
        ],
        "identifier": [
          {
            "use": "official",
            "system": "http://mihin.org/fhir/sid/elementId",
            "value": "8c150af4-9143-4549-a3c4-215c09f618ff"
          }
        ],
        "status": "completed",
        "vaccineCode": {
          "coding": [
            {
              "system": "NDC",
              "code": "59267-1000-03",
              "display": "Pfizer-BioNTech Covid-19 Vaccine"
            }
          ]
        },
        "patient": {
          "reference": "Patient/22983",
          "display": "Irene Anne Freeman"
        },
        "encounter": {
          "reference": "Encounter/2293294",
          "display": "Covid-19 Immunizations [Vaccination_Encounter [Encounter]]"
        },
        "recorded": "2021-04-27T15:20:00+00:00",
        "primarySource": true,
        "location": {
          "reference": "Location/18918",
          "display": "Bayside Medical Group"
        },
        "performer": [
          {
            "actor": {
              "reference": "Practitioner/20851",
              "identifier": {
                "system": "http://hl7.org/fhir/sid/us-npi",
                "value": "9999999800"
              },
              "display": "Frances Angela Roth MD"
            }
          }
        ]
      }
    },
    {
      "fullUrl": "https://gw.interop.community/Harrison4Saffron/data/MedicationRequest/1843857",
      "resource": {
        "resourceType": "MedicationRequest",
        "id": "1843857",
        "meta": {
          "versionId": "1",
          "lastUpdated": "2023-04-06T08:31:34+00:00",
          "source": "#nxx3h6aCdClpG99m"
        },
        "text": {
          "status": "generated",
          "div": "<div xmlns=\"http://www.w3.org/1999/xhtml\">This is a simple narrative with only plain text</div>"
        },
        "extension": [
          {
            "url": "http://mihin.org/extension/copyright",
            "valueString": "Copyright 2014-2022 Michigan Health Information Network Shared Services. Licensed under the Apache License, Version 2.0 (the 'License'); you may not use this file except in compliance with the License. You may obtain a copy of the License at  http://www.apache.org/licenses/LICENSE-2.0.  Unless required by applicable law or agreed to in writing, software distributed under the License is distributed on an 'AS IS' BASIS, WITHOUT WARRANTIES OR CONDITIONS OF ANY KIND, either express or implied. See the License for the specific language governing permissions and limitations under the License."
          },
          {
            "url": "http://build.fhir.org/ig/HL7/davinci-crd/R4/ext-insurance.html",
            "valueReference": {
              "reference": "Coverage/507442",
              "display": "Irene Anne Freeman Coverage"
            }
          }
        ],
        "identifier": [
          {
            "use": "official",
            "system": "http://mihin.org/fhir/sid/elementId",
            "value": "16e196d3-9b63-4b70-b962-747a8e820f10"
          }
        ],
        "status": "active",
        "intent": "order",
        "medicationCodeableConcept": {
          "coding": [
            {
              "system": "http://www.nlm.nih.gov/research/umls/rxnorm",
              "code": "258337",
              "display": "Hydrochlorothiazide / Triamterene"
            }
          ]
        },
        "subject": {
          "reference": "Patient/22983",
          "display": "Irene Anne Freeman"
        },
        "encounter": {
          "reference": "Encounter/1843786",
          "display": "Wellness Encounter created 2019/12/22 00:00 for 2020/12/09"
        },
        "authoredOn": "2020-12-07T08:40:00+00:00",
        "requester": {
          "reference": "Practitioner/20851",
          "identifier": {
            "system": "http://hl7.org/fhir/sid/us-npi",
            "value": "9999999800"
          },
          "display": "Frances Angela Roth MD"
        },
        "reasonCode": [
          {
            "coding": [
              {
                "system": "http://snomed.info/sct:731000124108",
                "code": "46481004",
                "display": "Low-renin essential hypertension"
              }
            ]
          }
        ],
        "insurance": [
          {
            "reference": "Coverage/507442",
            "display": "Irene Anne Freeman Coverage"
          }
        ],
        "dosageInstruction": [
          {
            "sequence": 1,
            "timing": {
              "repeat": {
                "frequency": 1,
                "period": 1,
                "periodUnit": "d"
              }
            },
            "asNeededBoolean": false,
            "doseAndRate": [
              {
                "doseQuantity": {
                  "value": 1
                }
              }
            ]
          }
        ],
        "dispenseRequest": {
          "validityPeriod": {
            "start": "2020-12-07T08:40:00+00:00",
            "end": "2020-12-07T08:40:00+00:00"
          }
        }
      }
    },
    {
      "fullUrl": "https://gw.interop.community/Harrison4Saffron/data/Condition/1095811",
      "resource": {
        "resourceType": "Condition",
        "id": "1095811",
        "meta": {
          "versionId": "1",
          "lastUpdated": "2023-04-05T11:20:21+00:00",
          "source": "#Fg0JCKhzBhxTs2g7"
        },
        "text": {
          "status": "generated",
          "div": "<div xmlns=\"http://www.w3.org/1999/xhtml\">This is a simple narrative with only plain text</div>"
        },
        "extension": [
          {
            "url": "http://mihin.org/extension/copyright",
            "valueString": "Copyright 2014-2022 Michigan Health Information Network Shared Services. Licensed under the Apache License, Version 2.0 (the 'License'); you may not use this file except in compliance with the License. You may obtain a copy of the License at  http://www.apache.org/licenses/LICENSE-2.0.  Unless required by applicable law or agreed to in writing, software distributed under the License is distributed on an 'AS IS' BASIS, WITHOUT WARRANTIES OR CONDITIONS OF ANY KIND, either express or implied. See the License for the specific language governing permissions and limitations under the License."
          }
        ],
        "identifier": [
          {
            "use": "official",
            "system": "http://mihin.org/fhir/sid/elementId",
            "value": "0f48a833-9ed6-444e-9988-70ab3b7a38c6"
          }
        ],
        "clinicalStatus": {
          "coding": [
            {
              "system": "http://hl7.org/fhir/ValueSet/condition-clinical",
              "code": "active",
              "display": "Active"
            }
          ]
        },
        "verificationStatus": {
          "coding": [
            {
              "system": "http://hl7.org/fhir/ValueSet/condition-ver-status",
              "code": "confirmed",
              "display": "Confirmed"
            }
          ]
        },
        "category": [
          {
            "coding": [
              {
                "system": "http://hl7.org/fhir/ValueSet/condition-category",
                "code": "encounter-diagnosis",
                "display": "Encounter Diagnosis"
              }
            ]
          }
        ],
        "code": {
          "coding": [
            {
              "system": "http://snomed.info/sct",
              "code": "195662009",
              "display": "Acute viral pharyngitis (disorder)"
            },
            {
              "system": "http://hl7.org/fhir/sid/icd-10",
              "code": "J03.90",
              "display": "Acute viral pharyngitis (disorder)"
            }
          ]
        },
        "subject": {
          "reference": "Patient/22983",
          "display": "Irene Anne Freeman"
        },
        "encounter": {
          "reference": "Encounter/1095809",
          "display": "Sore Throat [Doctor_Visit [Encounter]]"
        },
        "onsetDateTime": "2020-05-12T12:00:00+00:00",
        "recordedDate": "2020-05-12T12:00:00+00:00",
        "asserter": {
          "reference": "Practitioner/20095",
          "identifier": {
            "system": "http://hl7.org/fhir/sid/us-npi",
            "value": "9999999456"
          },
          "display": "Reginald Stein Lin MD"
        }
      }
    },
    {
      "fullUrl": "https://gw.interop.community/Harrison4Saffron/data/MedicationRequest/414118",
      "resource": {
        "resourceType": "MedicationRequest",
        "id": "414118",
        "meta": {
          "versionId": "1",
          "lastUpdated": "2023-04-04T14:26:08+00:00",
          "source": "#R928ojzXgQCZeOcv"
        },
        "text": {
          "status": "generated",
          "div": "<div xmlns=\"http://www.w3.org/1999/xhtml\">This is a simple narrative with only plain text</div>"
        },
        "extension": [
          {
            "url": "http://mihin.org/extension/copyright",
            "valueString": "Copyright 2014-2022 Michigan Health Information Network Shared Services. Licensed under the Apache License, Version 2.0 (the 'License'); you may not use this file except in compliance with the License. You may obtain a copy of the License at  http://www.apache.org/licenses/LICENSE-2.0.  Unless required by applicable law or agreed to in writing, software distributed under the License is distributed on an 'AS IS' BASIS, WITHOUT WARRANTIES OR CONDITIONS OF ANY KIND, either express or implied. See the License for the specific language governing permissions and limitations under the License."
          },
          {
            "url": "http://build.fhir.org/ig/HL7/davinci-crd/R4/ext-insurance.html",
            "valueReference": {
              "reference": "Coverage/111690",
              "display": "Irene Anne Freeman Coverage"
            }
          }
        ],
        "identifier": [
          {
            "use": "official",
            "system": "http://mihin.org/fhir/sid/elementId",
            "value": "2f606fc2-79d5-41c7-b275-c15da7b3c421"
          }
        ],
        "status": "active",
        "intent": "order",
        "medicationCodeableConcept": {
          "coding": [
            {
              "system": "http://www.nlm.nih.gov/research/umls/rxnorm",
              "code": "Leslyn",
              "display": "amLODIPine Besylate"
            }
          ]
        },
        "subject": {
          "reference": "Patient/22983",
          "display": "Irene Anne Freeman"
        },
        "encounter": {
          "reference": "Encounter/414086",
          "display": "Wellness Encounter created 2017/12/24 00:00 for 2018/12/11"
        },
        "authoredOn": "2018-12-13T15:40:00+00:00",
        "requester": {
          "reference": "Practitioner/20851",
          "identifier": {
            "system": "http://hl7.org/fhir/sid/us-npi",
            "value": "9999999800"
          },
          "display": "Frances Angela Roth MD"
        },
        "reasonCode": [
          {
            "coding": [
              {
                "system": "http://hl7.org/fhir/sid/icd-9-cm",
                "code": "401.9",
                "display": "Unspecified essential hypertension"
              }
            ]
          }
        ],
        "insurance": [
          {
            "reference": "Coverage/111690",
            "display": "Irene Anne Freeman Coverage"
          }
        ],
        "dosageInstruction": [
          {
            "sequence": 1,
            "timing": {
              "repeat": {
                "frequency": 1,
                "period": 1,
                "periodUnit": "d"
              }
            },
            "asNeededBoolean": false,
            "doseAndRate": [
              {
                "doseQuantity": {
                  "value": 1
                }
              }
            ]
          }
        ],
        "dispenseRequest": {
          "validityPeriod": {
            "start": "2018-12-13T15:40:00+00:00",
            "end": "2018-12-13T15:40:00+00:00"
          }
        }
      }
    },
    {
      "fullUrl": "https://gw.interop.community/Harrison4Saffron/data/MedicationRequest/1399468",
      "resource": {
        "resourceType": "MedicationRequest",
        "id": "1399468",
        "meta": {
          "versionId": "1",
          "lastUpdated": "2023-04-05T20:12:08+00:00",
          "source": "#aD8Ynw7FV7gbLcch"
        },
        "text": {
          "status": "generated",
          "div": "<div xmlns=\"http://www.w3.org/1999/xhtml\">This is a simple narrative with only plain text</div>"
        },
        "extension": [
          {
            "url": "http://mihin.org/extension/copyright",
            "valueString": "Copyright 2014-2022 Michigan Health Information Network Shared Services. Licensed under the Apache License, Version 2.0 (the 'License'); you may not use this file except in compliance with the License. You may obtain a copy of the License at  http://www.apache.org/licenses/LICENSE-2.0.  Unless required by applicable law or agreed to in writing, software distributed under the License is distributed on an 'AS IS' BASIS, WITHOUT WARRANTIES OR CONDITIONS OF ANY KIND, either express or implied. See the License for the specific language governing permissions and limitations under the License."
          },
          {
            "url": "http://build.fhir.org/ig/HL7/davinci-crd/R4/ext-insurance.html",
            "valueReference": {
              "reference": "Coverage/1147752",
              "display": "Irene Anne Freeman Coverage"
            }
          },
          {
            "url": "http://build.fhir.org/ig/HL7/davinci-crd/R4/ext-insurance.html",
            "valueReference": {
              "reference": "Coverage/1147753",
              "display": "Irene Anne Freeman Coverage"
            }
          }
        ],
        "identifier": [
          {
            "use": "official",
            "system": "http://mihin.org/fhir/sid/elementId",
            "value": "7b3367f3-30bc-4a9f-ad68-7d35b9ee53a3"
          }
        ],
        "status": "active",
        "intent": "order",
        "medicationCodeableConcept": {
          "coding": [
            {
              "system": "http://www.nlm.nih.gov/research/umls/rxnorm",
              "code": "248656",
              "display": "Azithromycin 500 MG Oral Tablet"
            }
          ]
        },
        "subject": {
          "reference": "Patient/22983",
          "display": "Irene Anne Freeman"
        },
        "encounter": {
          "reference": "Encounter/1399461",
          "display": "Genital  Herpes [Ambulatory_Encounter [Encounter]]"
        },
        "authoredOn": "2020-08-18T09:00:00+00:00",
        "requester": {
          "reference": "Practitioner/20851",
          "identifier": {
            "system": "http://hl7.org/fhir/sid/us-npi",
            "value": "9999999800"
          },
          "display": "Frances Angela Roth MD"
        },
        "reasonCode": [
          {
            "coding": [
              {
                "system": "http://snomed.info/sct",
                "code": "33839006",
                "display": "Genital herpes simplex (disorder)"
              }
            ]
          },
          {
            "coding": [
              {
                "system": "http://hl7.org/fhir/sid/icd-10",
                "code": "A60.9",
                "display": "Genital herpes simplex (disorder)"
              }
            ]
          }
        ],
        "insurance": [
          {
            "reference": "Coverage/1147752",
            "display": "Irene Anne Freeman Coverage"
          },
          {
            "reference": "Coverage/1147753",
            "display": "Irene Anne Freeman Coverage"
          }
        ]
      }
    },
    {
      "fullUrl": "https://gw.interop.community/Harrison4Saffron/data/MedicationRequest/613301",
      "resource": {
        "resourceType": "MedicationRequest",
        "id": "613301",
        "meta": {
          "versionId": "1",
          "lastUpdated": "2023-04-04T20:47:35+00:00",
          "source": "#3zSULwccdBwEcAqF"
        },
        "text": {
          "status": "generated",
          "div": "<div xmlns=\"http://www.w3.org/1999/xhtml\">This is a simple narrative with only plain text</div>"
        },
        "extension": [
          {
            "url": "http://mihin.org/extension/copyright",
            "valueString": "Copyright 2014-2022 Michigan Health Information Network Shared Services. Licensed under the Apache License, Version 2.0 (the 'License'); you may not use this file except in compliance with the License. You may obtain a copy of the License at  http://www.apache.org/licenses/LICENSE-2.0.  Unless required by applicable law or agreed to in writing, software distributed under the License is distributed on an 'AS IS' BASIS, WITHOUT WARRANTIES OR CONDITIONS OF ANY KIND, either express or implied. See the License for the specific language governing permissions and limitations under the License."
          },
          {
            "url": "http://build.fhir.org/ig/HL7/davinci-crd/R4/ext-insurance.html",
            "valueReference": {
              "reference": "Coverage/507442",
              "display": "Irene Anne Freeman Coverage"
            }
          }
        ],
        "identifier": [
          {
            "use": "official",
            "system": "http://mihin.org/fhir/sid/elementId",
            "value": "69e2efec-8272-490b-bb9a-39b56af635bf"
          }
        ],
        "status": "active",
        "intent": "order",
        "medicationCodeableConcept": {
          "coding": [
            {
              "system": "http://www.nlm.nih.gov/research/umls/rxnorm",
              "code": "248656",
              "display": "Azithromycin 500 MG Oral Tablet"
            }
          ]
        },
        "subject": {
          "reference": "Patient/22983",
          "display": "Irene Anne Freeman"
        },
        "encounter": {
          "reference": "Encounter/613294",
          "display": "Genital  Herpes [Ambulatory_Encounter [Encounter]]"
        },
        "authoredOn": "2019-12-12T08:00:00+00:00",
        "requester": {
          "reference": "Practitioner/20851",
          "identifier": {
            "system": "http://hl7.org/fhir/sid/us-npi",
            "value": "9999999800"
          },
          "display": "Frances Angela Roth MD"
        },
        "reasonCode": [
          {
            "coding": [
              {
                "system": "http://snomed.info/sct",
                "code": "33839006",
                "display": "Genital herpes simplex (disorder)"
              }
            ]
          },
          {
            "coding": [
              {
                "system": "http://hl7.org/fhir/sid/icd-10",
                "code": "A60.9",
                "display": "Genital herpes simplex (disorder)"
              }
            ]
          }
        ],
        "insurance": [
          {
            "reference": "Coverage/507442",
            "display": "Irene Anne Freeman Coverage"
          }
        ]
      }
    },
    {
      "fullUrl": "https://gw.interop.community/Harrison4Saffron/data/MedicationRequest/203372",
      "resource": {
        "resourceType": "MedicationRequest",
        "id": "203372",
        "meta": {
          "versionId": "1",
          "lastUpdated": "2023-04-04T07:37:37+00:00",
          "source": "#jfngQ0gQaF6vXD3p"
        },
        "text": {
          "status": "generated",
          "div": "<div xmlns=\"http://www.w3.org/1999/xhtml\">This is a simple narrative with only plain text</div>"
        },
        "extension": [
          {
            "url": "http://mihin.org/extension/copyright",
            "valueString": "Copyright 2014-2022 Michigan Health Information Network Shared Services. Licensed under the Apache License, Version 2.0 (the 'License'); you may not use this file except in compliance with the License. You may obtain a copy of the License at  http://www.apache.org/licenses/LICENSE-2.0.  Unless required by applicable law or agreed to in writing, software distributed under the License is distributed on an 'AS IS' BASIS, WITHOUT WARRANTIES OR CONDITIONS OF ANY KIND, either express or implied. See the License for the specific language governing permissions and limitations under the License."
          },
          {
            "url": "http://build.fhir.org/ig/HL7/davinci-crd/R4/ext-insurance.html",
            "valueReference": {
              "reference": "Coverage/27383",
              "display": "Irene Anne Freeman Coverage"
            }
          },
          {
            "url": "http://build.fhir.org/ig/HL7/davinci-crd/R4/ext-insurance.html",
            "valueReference": {
              "reference": "Coverage/27247",
              "display": "Irene Anne Freeman Coverage"
            }
          }
        ],
        "identifier": [
          {
            "use": "official",
            "system": "http://mihin.org/fhir/sid/elementId",
            "value": "55ed3a6f-37f1-4a13-aef7-c976c6e9bcce"
          }
        ],
        "status": "active",
        "intent": "order",
        "medicationCodeableConcept": {
          "coding": [
            {
              "system": "http://www.nlm.nih.gov/research/umls/rxnorm",
              "code": "104416",
              "display": "amLODIPine Besylate"
            }
          ]
        },
        "subject": {
          "reference": "Patient/22983",
          "display": "Irene Anne Freeman"
        },
        "encounter": {
          "reference": "Encounter/203167",
          "display": "Wellness Encounter created 2017/01/08 00:00 for 2017/12/11"
        },
        "authoredOn": "2017-12-11T14:20:00+00:00",
        "requester": {
          "reference": "Practitioner/20851",
          "identifier": {
            "system": "http://hl7.org/fhir/sid/us-npi",
            "value": "9999999800"
          },
          "display": "Frances Angela Roth MD"
        },
        "reasonCode": [
          {
            "coding": [
              {
                "system": "http://snomed.info/sct:731000124108",
                "code": "65518004",
                "display": "Labile diastolic hypertension"
              }
            ]
          }
        ],
        "insurance": [
          {
            "reference": "Coverage/27383",
            "display": "Irene Anne Freeman Coverage"
          },
          {
            "reference": "Coverage/27247",
            "display": "Irene Anne Freeman Coverage"
          }
        ],
        "dosageInstruction": [
          {
            "sequence": 1,
            "timing": {
              "repeat": {
                "frequency": 1,
                "period": 1,
                "periodUnit": "d"
              }
            },
            "asNeededBoolean": false,
            "doseAndRate": [
              {
                "doseQuantity": {
                  "value": 1
                }
              }
            ]
          }
        ],
        "dispenseRequest": {
          "validityPeriod": {
            "start": "2017-12-11T14:20:00+00:00",
            "end": "2017-12-11T14:20:00+00:00"
          }
        }
      }
    },
    {
      "fullUrl": "https://gw.interop.community/Harrison4Saffron/data/MedicationRequest/1843854",
      "resource": {
        "resourceType": "MedicationRequest",
        "id": "1843854",
        "meta": {
          "versionId": "1",
          "lastUpdated": "2023-04-06T08:31:34+00:00",
          "source": "#nxx3h6aCdClpG99m"
        },
        "text": {
          "status": "generated",
          "div": "<div xmlns=\"http://www.w3.org/1999/xhtml\">This is a simple narrative with only plain text</div>"
        },
        "extension": [
          {
            "url": "http://mihin.org/extension/copyright",
            "valueString": "Copyright 2014-2022 Michigan Health Information Network Shared Services. Licensed under the Apache License, Version 2.0 (the 'License'); you may not use this file except in compliance with the License. You may obtain a copy of the License at  http://www.apache.org/licenses/LICENSE-2.0.  Unless required by applicable law or agreed to in writing, software distributed under the License is distributed on an 'AS IS' BASIS, WITHOUT WARRANTIES OR CONDITIONS OF ANY KIND, either express or implied. See the License for the specific language governing permissions and limitations under the License."
          },
          {
            "url": "http://build.fhir.org/ig/HL7/davinci-crd/R4/ext-insurance.html",
            "valueReference": {
              "reference": "Coverage/507442",
              "display": "Irene Anne Freeman Coverage"
            }
          }
        ],
        "identifier": [
          {
            "use": "official",
            "system": "http://mihin.org/fhir/sid/elementId",
            "value": "1718178f-ee50-4258-a32d-3cec9f54364f"
          }
        ],
        "status": "active",
        "intent": "order",
        "medicationCodeableConcept": {
          "coding": [
            {
              "system": "http://www.nlm.nih.gov/research/umls/rxnorm",
              "code": "979487",
              "display": "Losartan Potassium 25 MG Oral Tablet [Cozaar]"
            }
          ]
        },
        "subject": {
          "reference": "Patient/22983",
          "display": "Irene Anne Freeman"
        },
        "encounter": {
          "reference": "Encounter/1843786",
          "display": "Wellness Encounter created 2019/12/22 00:00 for 2020/12/09"
        },
        "authoredOn": "2020-12-07T08:40:00+00:00",
        "requester": {
          "reference": "Practitioner/20851",
          "identifier": {
            "system": "http://hl7.org/fhir/sid/us-npi",
            "value": "9999999800"
          },
          "display": "Frances Angela Roth MD"
        },
        "reasonCode": [
          {
            "coding": [
              {
                "system": "http://snomed.info/sct:731000124108",
                "code": "371125006",
                "display": "Labile essential hypertension"
              }
            ]
          }
        ],
        "insurance": [
          {
            "reference": "Coverage/507442",
            "display": "Irene Anne Freeman Coverage"
          }
        ],
        "dosageInstruction": [
          {
            "sequence": 1,
            "timing": {
              "repeat": {
                "frequency": 1,
                "period": 1,
                "periodUnit": "d"
              }
            },
            "asNeededBoolean": false,
            "doseAndRate": [
              {
                "doseQuantity": {
                  "value": 1
                }
              }
            ]
          }
        ],
        "dispenseRequest": {
          "validityPeriod": {
            "start": "2020-12-07T08:40:00+00:00",
            "end": "2020-12-07T08:40:00+00:00"
          }
        }
      }
    },
    {
      "fullUrl": "https://gw.interop.community/Harrison4Saffron/data/Immunization/414088",
      "resource": {
        "resourceType": "Immunization",
        "id": "414088",
        "meta": {
          "versionId": "1",
          "lastUpdated": "2023-04-04T14:26:08+00:00",
          "source": "#R928ojzXgQCZeOcv"
        },
        "text": {
          "status": "generated",
          "div": "<div xmlns=\"http://www.w3.org/1999/xhtml\">This is a simple narrative with only plain text</div>"
        },
        "extension": [
          {
            "url": "http://mihin.org/extension/copyright",
            "valueString": "Copyright 2014-2022 Michigan Health Information Network Shared Services. Licensed under the Apache License, Version 2.0 (the 'License'); you may not use this file except in compliance with the License. You may obtain a copy of the License at  http://www.apache.org/licenses/LICENSE-2.0.  Unless required by applicable law or agreed to in writing, software distributed under the License is distributed on an 'AS IS' BASIS, WITHOUT WARRANTIES OR CONDITIONS OF ANY KIND, either express or implied. See the License for the specific language governing permissions and limitations under the License."
          }
        ],
        "identifier": [
          {
            "use": "official",
            "system": "http://mihin.org/fhir/sid/elementId",
            "value": "d6a47de0-abd7-4d0e-afce-169c12f21916"
          }
        ],
        "status": "completed",
        "vaccineCode": {
          "coding": [
            {
              "system": "http://hl7.org/fhir/sid/cvx",
              "code": "140",
              "display": "Influenza, seasonal, injectable, preservative free"
            }
          ]
        },
        "patient": {
          "reference": "Patient/22983",
          "display": "Irene Anne Freeman"
        },
        "encounter": {
          "reference": "Encounter/414086",
          "display": "Wellness Encounter created 2017/12/24 00:00 for 2018/12/11"
        },
        "recorded": "2018-12-13T15:40:00+00:00",
        "primarySource": true,
        "location": {
          "reference": "Location/18918",
          "display": "Bayside Medical Group"
        },
        "performer": [
          {
            "actor": {
              "reference": "Practitioner/20851",
              "identifier": {
                "system": "http://hl7.org/fhir/sid/us-npi",
                "value": "9999999800"
              },
              "display": "Frances Angela Roth MD"
            }
          }
        ]
      }
    },
    {
      "fullUrl": "https://gw.interop.community/Harrison4Saffron/data/Practitioner/20096",
      "resource": {
        "resourceType": "Practitioner",
        "id": "20096",
        "meta": {
          "versionId": "2",
          "lastUpdated": "2023-05-06T04:33:50+00:00",
          "source": "#CYTXpl79j5T74PZ3"
        },
        "text": {
          "status": "generated",
          "div": "<div xmlns=\"http://www.w3.org/1999/xhtml\">This is a simple narrative with only plain text</div>"
        },
        "extension": [
          {
            "url": "http://mihin.org/extension/copyright",
            "valueString": "Copyright 2014-2022 Michigan Health Information Network Shared Services. Licensed under the Apache License, Version 2.0 (the 'License'); you may not use this file except in compliance with the License. You may obtain a copy of the License at  http://www.apache.org/licenses/LICENSE-2.0.  Unless required by applicable law or agreed to in writing, software distributed under the License is distributed on an 'AS IS' BASIS, WITHOUT WARRANTIES OR CONDITIONS OF ANY KIND, either express or implied. See the License for the specific language governing permissions and limitations under the License."
          }
        ],
        "identifier": [
          {
            "use": "official",
            "type": {
              "coding": [
                {
                  "system": "http://terminology.hl7.org/CodeSystem/v2-0203",
                  "code": "SB",
                  "display": "Social Beneficiary Identifier"
                }
              ]
            },
            "system": "http://hl7.org/fhir/sid/us-ssn",
            "value": "000000460"
          },
          {
            "use": "official",
            "type": {
              "coding": [
                {
                  "system": "http://terminology.hl7.org/CodeSystem/v2-0203",
                  "code": "SB",
                  "display": "Social Beneficiary Identifier"
                }
              ]
            },
            "system": "http://mihin.org/fhir/cks",
            "value": "98c330282c9b45878c0231552dca964c"
          },
          {
            "use": "official",
            "type": {
              "coding": [
                {
                  "system": "http://terminology.hl7.org/CodeSystem/v2-0203",
                  "code": "PRN",
                  "display": "Provider number"
                }
              ]
            },
            "system": "http://terminology.hl7.org/CodeSystem/v2-0203",
            "value": "9999999460"
          }
        ],
        "active": true,
        "name": [
          {
            "use": "official",
            "family": "Parks",
            "given": [
              "Larry",
              "Mario"
            ],
            "suffix": [
              "MD"
            ]
          }
        ],
        "telecom": [
          {
            "system": "phone",
            "value": "989-555-6266",
            "use": "home"
          },
          {
            "system": "phone",
            "value": "989-555-6823",
            "use": "mobile"
          }
        ],
        "address": [
          {
            "use": "work",
            "type": "postal",
            "line": [
              "518 SE Spanish Avenue"
            ],
            "city": "Hemlock",
            "district": "Harrison",
            "state": "Anywhere",
            "postalCode": "48626"
          }
        ],
        "gender": "male",
        "birthDate": "1987-06-10",
        "qualification": [
          {
            "identifier": [
              {
                "use": "official",
                "type": {
                  "coding": [
                    {
                      "system": "http://terminology.hl7.org/CodeSystem/v2-0203",
                      "code": "MD",
                      "display": "Medical License number"
                    }
                  ]
                },
                "system": "http://anywhere.gov/fhir/medical-license",
                "value": "LIC-460"
              }
            ],
            "code": {
              "coding": [
                {
                  "system": "http://terminology.hl7.org/CodeSystem/v2-0360",
                  "code": "MD",
                  "display": "Doctor of Medicine"
                }
              ]
            },
            "period": {
              "start": "2017-01-01T00:00:00+00:00",
              "end": "2022-12-31T00:00:00+00:00"
            },
            "issuer": {
              "reference": "Organization/17081",
              "display": "State Licensing Board"
            }
          }
        ]
      }
    },
    {
      "fullUrl": "https://gw.interop.community/Harrison4Saffron/data/Condition/2513191",
      "resource": {
        "resourceType": "Condition",
        "id": "2513191",
        "meta": {
          "versionId": "1",
          "lastUpdated": "2023-04-07T02:59:17+00:00",
          "source": "#pTf1LZbwH6Jh74Ug"
        },
        "text": {
          "status": "generated",
          "div": "<div xmlns=\"http://www.w3.org/1999/xhtml\">This is a simple narrative with only plain text</div>"
        },
        "extension": [
          {
            "url": "http://mihin.org/extension/copyright",
            "valueString": "Copyright 2014-2022 Michigan Health Information Network Shared Services. Licensed under the Apache License, Version 2.0 (the 'License'); you may not use this file except in compliance with the License. You may obtain a copy of the License at  http://www.apache.org/licenses/LICENSE-2.0.  Unless required by applicable law or agreed to in writing, software distributed under the License is distributed on an 'AS IS' BASIS, WITHOUT WARRANTIES OR CONDITIONS OF ANY KIND, either express or implied. See the License for the specific language governing permissions and limitations under the License."
          }
        ],
        "identifier": [
          {
            "use": "official",
            "system": "http://mihin.org/fhir/sid/elementId",
            "value": "67881247-b7b6-42de-bde5-6e5cb6e6afea"
          }
        ],
        "clinicalStatus": {
          "coding": [
            {
              "system": "http://hl7.org/fhir/ValueSet/condition-clinical",
              "code": "active",
              "display": "Active"
            }
          ]
        },
        "verificationStatus": {
          "coding": [
            {
              "system": "http://hl7.org/fhir/ValueSet/condition-ver-status",
              "code": "confirmed",
              "display": "Confirmed"
            }
          ]
        },
        "category": [
          {
            "coding": [
              {
                "system": "http://hl7.org/fhir/ValueSet/condition-category",
                "code": "encounter-diagnosis",
                "display": "Encounter Diagnosis"
              }
            ]
          }
        ],
        "code": {
          "coding": [
            {
              "system": "http://snomed.info/sct",
              "code": "33839006",
              "display": "Genital herpes simplex (disorder)"
            },
            {
              "system": "http://hl7.org/fhir/sid/icd-10",
              "code": "A60.9",
              "display": "Genital herpes simplex (disorder)"
            }
          ]
        },
        "subject": {
          "reference": "Patient/22983",
          "display": "Irene Anne Freeman"
        },
        "encounter": {
          "reference": "Encounter/2513189",
          "display": "Genital  Herpes [Ambulatory_Encounter [Encounter]]"
        },
        "onsetDateTime": "2021-06-06T10:20:00+00:00",
        "recordedDate": "2021-06-06T10:20:00+00:00",
        "asserter": {
          "reference": "Practitioner/20851",
          "identifier": {
            "system": "http://hl7.org/fhir/sid/us-npi",
            "value": "9999999800"
          },
          "display": "Frances Angela Roth MD"
        }
      }
    },
    {
      "fullUrl": "https://gw.interop.community/Harrison4Saffron/data/Condition/37609",
      "resource": {
        "resourceType": "Condition",
        "id": "37609",
        "meta": {
          "versionId": "4",
          "lastUpdated": "2023-05-06T03:04:58+00:00",
          "source": "#lArz1XebHRBNtyVg"
        },
        "text": {
          "status": "generated",
          "div": "<div xmlns=\"http://www.w3.org/1999/xhtml\">This is a simple narrative with only plain text</div>"
        },
        "extension": [
          {
            "url": "http://mihin.org/extension/copyright",
            "valueString": "Copyright 2014-2022 Michigan Health Information Network Shared Services. Licensed under the Apache License, Version 2.0 (the 'License'); you may not use this file except in compliance with the License. You may obtain a copy of the License at  http://www.apache.org/licenses/LICENSE-2.0.  Unless required by applicable law or agreed to in writing, software distributed under the License is distributed on an 'AS IS' BASIS, WITHOUT WARRANTIES OR CONDITIONS OF ANY KIND, either express or implied. See the License for the specific language governing permissions and limitations under the License."
          }
        ],
        "identifier": [
          {
            "use": "official",
            "system": "http://mihin.org/fhir/sid/elementId",
            "value": "f3339ab3-3e5c-4ed4-9776-d0bcd3dbfd24"
          }
        ],
        "clinicalStatus": {
          "coding": [
            {
              "system": "http://terminology.hl7.org/CodeSystem/condition-clinical",
              "code": "active",
              "display": "Active"
            }
          ]
        },
        "verificationStatus": {
          "coding": [
            {
              "system": "http://terminology.hl7.org/CodeSystem/condition-ver-status",
              "code": "confirmed",
              "display": "Confirmed"
            }
          ]
        },
        "category": [
          {
            "coding": [
              {
                "system": "http://terminology.hl7.org/CodeSystem/condition-category",
                "code": "encounter-diagnosis",
                "display": "Encounter Diagnosis"
              }
            ]
          }
        ],
        "code": {
          "coding": [
            {
              "system": "http://snomed.info/sct",
              "code": "95417003",
              "display": "Influenza (Disorder)"
            },
            {
              "system": "http://hl7.org/fhir/sid/icd-10",
              "code": "J10.1",
              "display": "Influenza (Disorder)"
            }
          ]
        },
        "subject": {
          "reference": "Patient/22983",
          "display": "Irene Anne Freeman"
        },
        "encounter": {
          "reference": "Encounter/37607",
          "display": "Influenza (Disorder) [Doctor_Visit [Encounter]]"
        },
        "onsetDateTime": "2023-05-03T00:00:00+00:00",
        "recordedDate": "2023-05-03T00:00:00+00:00",
        "asserter": {
          "reference": "Practitioner/20096",
          "identifier": {
            "system": "http://terminology.hl7.org/CodeSystem/v2-0203",
            "value": "9999999460"
          },
          "display": "Larry Mario Parks MD"
        }
      }
    },
    {
      "fullUrl": "https://gw.interop.community/Harrison4Saffron/data/MedicationRequest/203373",
      "resource": {
        "resourceType": "MedicationRequest",
        "id": "203373",
        "meta": {
          "versionId": "1",
          "lastUpdated": "2023-04-04T07:37:37+00:00",
          "source": "#jfngQ0gQaF6vXD3p"
        },
        "text": {
          "status": "generated",
          "div": "<div xmlns=\"http://www.w3.org/1999/xhtml\">This is a simple narrative with only plain text</div>"
        },
        "extension": [
          {
            "url": "http://mihin.org/extension/copyright",
            "valueString": "Copyright 2014-2022 Michigan Health Information Network Shared Services. Licensed under the Apache License, Version 2.0 (the 'License'); you may not use this file except in compliance with the License. You may obtain a copy of the License at  http://www.apache.org/licenses/LICENSE-2.0.  Unless required by applicable law or agreed to in writing, software distributed under the License is distributed on an 'AS IS' BASIS, WITHOUT WARRANTIES OR CONDITIONS OF ANY KIND, either express or implied. See the License for the specific language governing permissions and limitations under the License."
          },
          {
            "url": "http://build.fhir.org/ig/HL7/davinci-crd/R4/ext-insurance.html",
            "valueReference": {
              "reference": "Coverage/27383",
              "display": "Irene Anne Freeman Coverage"
            }
          },
          {
            "url": "http://build.fhir.org/ig/HL7/davinci-crd/R4/ext-insurance.html",
            "valueReference": {
              "reference": "Coverage/27247",
              "display": "Irene Anne Freeman Coverage"
            }
          }
        ],
        "identifier": [
          {
            "use": "official",
            "system": "http://mihin.org/fhir/sid/elementId",
            "value": "4f1aca13-414d-4684-b46d-43fb8b2e134f"
          }
        ],
        "status": "active",
        "intent": "order",
        "medicationCodeableConcept": {
          "coding": [
            {
              "system": "http://www.nlm.nih.gov/research/umls/rxnorm",
              "code": "258337",
              "display": "Hydrochlorothiazide / Triamterene"
            }
          ]
        },
        "subject": {
          "reference": "Patient/22983",
          "display": "Irene Anne Freeman"
        },
        "encounter": {
          "reference": "Encounter/203167",
          "display": "Wellness Encounter created 2017/01/08 00:00 for 2017/12/11"
        },
        "authoredOn": "2017-12-11T14:20:00+00:00",
        "requester": {
          "reference": "Practitioner/20851",
          "identifier": {
            "system": "http://hl7.org/fhir/sid/us-npi",
            "value": "9999999800"
          },
          "display": "Frances Angela Roth MD"
        },
        "reasonCode": [
          {
            "coding": [
              {
                "system": "http://hl7.org/fhir/sid/icd-10-cm",
                "code": "I10",
                "display": "Essential (primary) hypertension"
              }
            ]
          }
        ],
        "insurance": [
          {
            "reference": "Coverage/27383",
            "display": "Irene Anne Freeman Coverage"
          },
          {
            "reference": "Coverage/27247",
            "display": "Irene Anne Freeman Coverage"
          }
        ],
        "dosageInstruction": [
          {
            "sequence": 1,
            "timing": {
              "repeat": {
                "frequency": 1,
                "period": 1,
                "periodUnit": "d"
              }
            },
            "asNeededBoolean": false,
            "doseAndRate": [
              {
                "doseQuantity": {
                  "value": 1
                }
              }
            ]
          }
        ],
        "dispenseRequest": {
          "validityPeriod": {
            "start": "2017-12-11T14:20:00+00:00",
            "end": "2017-12-11T14:20:00+00:00"
          }
        }
      }
    },
    {
      "fullUrl": "https://gw.interop.community/Harrison4Saffron/data/Immunization/1843728",
      "resource": {
        "resourceType": "Immunization",
        "id": "1843728",
        "meta": {
          "versionId": "1",
          "lastUpdated": "2023-04-06T08:31:34+00:00",
          "source": "#nxx3h6aCdClpG99m"
        },
        "text": {
          "status": "generated",
          "div": "<div xmlns=\"http://www.w3.org/1999/xhtml\">This is a simple narrative with only plain text</div>"
        },
        "extension": [
          {
            "url": "http://mihin.org/extension/copyright",
            "valueString": "Copyright 2014-2022 Michigan Health Information Network Shared Services. Licensed under the Apache License, Version 2.0 (the 'License'); you may not use this file except in compliance with the License. You may obtain a copy of the License at  http://www.apache.org/licenses/LICENSE-2.0.  Unless required by applicable law or agreed to in writing, software distributed under the License is distributed on an 'AS IS' BASIS, WITHOUT WARRANTIES OR CONDITIONS OF ANY KIND, either express or implied. See the License for the specific language governing permissions and limitations under the License."
          }
        ],
        "identifier": [
          {
            "use": "official",
            "system": "http://mihin.org/fhir/sid/elementId",
            "value": "eb490675-fbbc-467b-adc1-bf44589587f7"
          }
        ],
        "status": "completed",
        "vaccineCode": {
          "coding": [
            {
              "system": "http://hl7.org/fhir/sid/cvx",
              "code": "140",
              "display": "Influenza, seasonal, injectable, preservative free"
            }
          ]
        },
        "patient": {
          "reference": "Patient/22983",
          "display": "Irene Anne Freeman"
        },
        "encounter": {
          "reference": "Encounter/1843786",
          "display": "Wellness Encounter created 2019/12/22 00:00 for 2020/12/09"
        },
        "recorded": "2020-12-07T08:40:00+00:00",
        "primarySource": true,
        "location": {
          "reference": "Location/18918",
          "display": "Bayside Medical Group"
        },
        "performer": [
          {
            "actor": {
              "reference": "Practitioner/20851",
              "identifier": {
                "system": "http://hl7.org/fhir/sid/us-npi",
                "value": "9999999800"
              },
              "display": "Frances Angela Roth MD"
            }
          }
        ]
      }
    },
    {
      "fullUrl": "https://gw.interop.community/Harrison4Saffron/data/MedicationRequest/2068089",
      "resource": {
        "resourceType": "MedicationRequest",
        "id": "2068089",
        "meta": {
          "versionId": "1",
          "lastUpdated": "2023-04-06T14:48:22+00:00",
          "source": "#g1czAlqjJc3CRpxu"
        },
        "text": {
          "status": "generated",
          "div": "<div xmlns=\"http://www.w3.org/1999/xhtml\">This is a simple narrative with only plain text</div>"
        },
        "extension": [
          {
            "url": "http://mihin.org/extension/copyright",
            "valueString": "Copyright 2014-2022 Michigan Health Information Network Shared Services. Licensed under the Apache License, Version 2.0 (the 'License'); you may not use this file except in compliance with the License. You may obtain a copy of the License at  http://www.apache.org/licenses/LICENSE-2.0.  Unless required by applicable law or agreed to in writing, software distributed under the License is distributed on an 'AS IS' BASIS, WITHOUT WARRANTIES OR CONDITIONS OF ANY KIND, either express or implied. See the License for the specific language governing permissions and limitations under the License."
          },
          {
            "url": "http://build.fhir.org/ig/HL7/davinci-crd/R4/ext-insurance.html",
            "valueReference": {
              "reference": "Coverage/1147752",
              "display": "Irene Anne Freeman Coverage"
            }
          },
          {
            "url": "http://build.fhir.org/ig/HL7/davinci-crd/R4/ext-insurance.html",
            "valueReference": {
              "reference": "Coverage/1147753",
              "display": "Irene Anne Freeman Coverage"
            }
          }
        ],
        "identifier": [
          {
            "use": "official",
            "system": "http://mihin.org/fhir/sid/elementId",
            "value": "a58ed90d-bb89-4732-8ecf-afcf84fb54ed"
          }
        ],
        "status": "active",
        "intent": "order",
        "medicationCodeableConcept": {
          "coding": [
            {
              "system": "http://www.nlm.nih.gov/research/umls/rxnorm",
              "code": "248656",
              "display": "Azithromycin 500 MG Oral Tablet"
            }
          ]
        },
        "subject": {
          "reference": "Patient/22983",
          "display": "Irene Anne Freeman"
        },
        "encounter": {
          "reference": "Encounter/2068082",
          "display": "Genital  Herpes [Ambulatory_Encounter [Encounter]]"
        },
        "authoredOn": "2021-02-20T08:40:00+00:00",
        "requester": {
          "reference": "Practitioner/20851",
          "identifier": {
            "system": "http://hl7.org/fhir/sid/us-npi",
            "value": "9999999800"
          },
          "display": "Frances Angela Roth MD"
        },
        "reasonCode": [
          {
            "coding": [
              {
                "system": "http://snomed.info/sct",
                "code": "33839006",
                "display": "Genital herpes simplex (disorder)"
              }
            ]
          },
          {
            "coding": [
              {
                "system": "http://hl7.org/fhir/sid/icd-10",
                "code": "A60.9",
                "display": "Genital herpes simplex (disorder)"
              }
            ]
          }
        ],
        "insurance": [
          {
            "reference": "Coverage/1147752",
            "display": "Irene Anne Freeman Coverage"
          },
          {
            "reference": "Coverage/1147753",
            "display": "Irene Anne Freeman Coverage"
          }
        ]
      }
    },
    {
      "fullUrl": "https://gw.interop.community/Harrison4Saffron/data/MedicationRequest/639790",
      "resource": {
        "resourceType": "MedicationRequest",
        "id": "639790",
        "meta": {
          "versionId": "1",
          "lastUpdated": "2023-04-04T21:35:29+00:00",
          "source": "#Q7Oy79JLOq1lJxWS"
        },
        "text": {
          "status": "generated",
          "div": "<div xmlns=\"http://www.w3.org/1999/xhtml\">This is a simple narrative with only plain text</div>"
        },
        "extension": [
          {
            "url": "http://mihin.org/extension/copyright",
            "valueString": "Copyright 2014-2022 Michigan Health Information Network Shared Services. Licensed under the Apache License, Version 2.0 (the 'License'); you may not use this file except in compliance with the License. You may obtain a copy of the License at  http://www.apache.org/licenses/LICENSE-2.0.  Unless required by applicable law or agreed to in writing, software distributed under the License is distributed on an 'AS IS' BASIS, WITHOUT WARRANTIES OR CONDITIONS OF ANY KIND, either express or implied. See the License for the specific language governing permissions and limitations under the License."
          },
          {
            "url": "http://build.fhir.org/ig/HL7/davinci-crd/R4/ext-insurance.html",
            "valueReference": {
              "reference": "Coverage/507442",
              "display": "Irene Anne Freeman Coverage"
            }
          }
        ],
        "identifier": [
          {
            "use": "official",
            "system": "http://mihin.org/fhir/sid/elementId",
            "value": "85828248-c4b0-49e5-95b8-dc0b5119ef1b"
          }
        ],
        "status": "active",
        "intent": "order",
        "medicationCodeableConcept": {
          "coding": [
            {
              "system": "http://www.nlm.nih.gov/research/umls/rxnorm",
              "code": "596926",
              "display": "duloxetine 20 MG Delayed Release Oral Capsule"
            }
          ]
        },
        "subject": {
          "reference": "Patient/22983",
          "display": "Irene Anne Freeman"
        },
        "encounter": {
          "reference": "Encounter/639787",
          "display": "Fibromyalgia [Fibromyalgia_Episode [Encounter]]"
        },
        "authoredOn": "2020-01-26T00:00:00+00:00",
        "requester": {
          "reference": "Practitioner/19473",
          "identifier": {
            "system": "http://hl7.org/fhir/sid/us-npi",
            "value": "9999999986"
          },
          "display": "Theresa Lloyd Wolf MD"
        },
        "reasonCode": [
          {
            "coding": [
              {
                "system": "http://snomed.info/sct",
                "code": "95417003",
                "display": "Primary fibromyalgia syndrome"
              }
            ]
          },
          {
            "coding": [
              {
                "system": "http://hl7.org/fhir/sid/icd-10",
                "code": "M79.7",
                "display": "Primary fibromyalgia syndrome"
              }
            ]
          }
        ],
        "insurance": [
          {
            "reference": "Coverage/507442",
            "display": "Irene Anne Freeman Coverage"
          }
        ]
      }
    }
  ]
}