{
  "resourceType": "Bundle",
  "id": "d597baec-50bb-4a53-b75d-35ba2bf93b1b",
  "meta": {
    "versionId": "1",
    "lastUpdated": "2023-05-30T22:00:19.405+00:00",
    "profile": [
      "http://hl7.org/fhir/us/ecr/StructureDefinition/eicr-document-bundle"
    ]
  },
  "identifier": {
    "system": "http://example.com/identifier",
    "value": "Sample Value"
  },
  "type": "document",
  "timestamp": "2023-05-06T18:33:57.091+00:00",
  "entry": [
    {
      "resource": {
        "resourceType": "Composition",
        "id": "3e499e4d-551f-4464-928d-944677ac881e",
        "extension": [
          {
            "url": "http://hl7.org/fhir/StructureDefinition/composition-clinicaldocument-versionNumber",
            "valueString": "1"
          }
        ],
        "identifier": {
          "value": "3e499e4d-551f-4464-928d-944677ac881e"
        },
        "status": "final",
        "type": {
          "coding": [
            {
              "system": "http://loinc.org",
              "code": "55751-2",
              "display": "Public Health Case Report"
            }
          ],
          "text": "Public Health Case Report"
        },
        "subject": {
          "reference": "https://gw.interop.community/Harrison4Saffron/data/Patient/23809"
        },
        "encounter": {
          "reference": "https://gw.interop.community/Harrison4Saffron/data/Encounter/640148"
        },
        "date": "2023-05-06T18:33:57+00:00",
        "author": [
          {
            "reference": "https://gw.interop.community/Harrison4Saffron/data/Practitioner/19941"
          }
        ],
        "title": "Public Health Case Report",
        "custodian": {
          "reference": "https://gw.interop.community/Harrison4Saffron/data/Organization/17420"
        },
        "section": [
          {
            "code": {
              "coding": [
                {
                  "system": "http://loinc.org",
                  "code": "46239-0",
                  "display": "Chief complaint+Reason for visit Narrative"
                }
              ],
              "text": "Chief complaint+Reason for visit Narrative"
            }
          },
          {
            "code": {
              "coding": [
                {
                  "system": "http://loinc.org",
                  "code": "10164-2",
                  "display": "History of Present illness Narrative"
                }
              ],
              "text": "History of Present illness Narrative"
            }
          },
          {
            "code": {
              "coding": [
                {
                  "system": "http://loinc.org",
                  "code": "10187-3",
                  "display": "Review of Systems narrative"
                }
              ],
              "text": "Review of Systems narrative"
            }
          },
          {
            "code": {
              "coding": [
                {
                  "system": "http://loinc.org",
                  "code": "11450-4",
                  "display": "Problem Section Narrative"
                }
              ],
              "text": "Problem Section Narrative"
            },
            "entry": [
              {
                "reference": "https://gw.interop.community/Harrison4Saffron/data/Condition/1427416"
              },
              {
                "reference": "https://gw.interop.community/Harrison4Saffron/data/Condition/708697"
              },
              {
                "reference": "https://gw.interop.community/Harrison4Saffron/data/Condition/601157"
              },
              {
                "reference": "https://gw.interop.community/Harrison4Saffron/data/Condition/118489"
              },
              {
                "reference": "https://gw.interop.community/Harrison4Saffron/data/Condition/187786"
              },
              {
                "reference": "https://gw.interop.community/Harrison4Saffron/data/Condition/1724973"
              },
              {
                "reference": "https://gw.interop.community/Harrison4Saffron/data/Condition/662589"
              },
              {
                "reference": "https://gw.interop.community/Harrison4Saffron/data/Condition/529148"
              },
              {
                "reference": "https://gw.interop.community/Harrison4Saffron/data/Condition/708696"
              },
              {
                "reference": "https://gw.interop.community/Harrison4Saffron/data/Condition/708698"
              },
              {
                "reference": "https://gw.interop.community/Harrison4Saffron/data/Condition/671195"
              },
              {
                "reference": "https://gw.interop.community/Harrison4Saffron/data/Condition/709072"
              },
              {
                "reference": "https://gw.interop.community/Harrison4Saffron/data/Condition/355305"
              },
              {
                "reference": "https://gw.interop.community/Harrison4Saffron/data/Condition/708694"
              },
              {
                "extension": [
                  {
                    "extension": [
                      {
                        "url": "triggerCodeValueSet",
                        "valueString": "http://ersd.aimsplatform.org/fhir/ValueSet/sdtc"
                      },
                      {
                        "url": "triggerCodeValueSetVersion",
                        "valueString": "2022-10-19"
                      },
                      {
                        "url": "triggerCode",
                        "valueCoding": {
                          "system": "http://snomed.info/sct",
                          "code": "840544004"
                        }
                      }
                    ],
                    "url": "http://hl7.org/fhir/us/ecr/StructureDefinition/eicr-trigger-code-flag-extension"
                  }
                ],
                "reference": "https://gw.interop.community/Harrison4Saffron/data/Condition/709055"
              },
              {
                "reference": "https://gw.interop.community/Harrison4Saffron/data/Condition/2395102"
              },
              {
                "reference": "https://gw.interop.community/Harrison4Saffron/data/Condition/134213"
              },
              {
                "reference": "https://gw.interop.community/Harrison4Saffron/data/Condition/708695"
              },
              {
                "reference": "https://gw.interop.community/Harrison4Saffron/data/Condition/1847248"
              },
              {
                "reference": "https://gw.interop.community/Harrison4Saffron/data/Condition/472660"
              },
              {
                "reference": "https://gw.interop.community/Harrison4Saffron/data/Condition/1427314"
              },
              {
                "reference": "https://gw.interop.community/Harrison4Saffron/data/Condition/440654"
              },
              {
                "reference": "https://gw.interop.community/Harrison4Saffron/data/Condition/1427315"
              },
              {
                "reference": "https://gw.interop.community/Harrison4Saffron/data/Condition/284444"
              },
              {
                "reference": "https://gw.interop.community/Harrison4Saffron/data/Condition/44946"
              },
              {
                "reference": "https://gw.interop.community/Harrison4Saffron/data/Condition/2071759"
              },
              {
                "reference": "https://gw.interop.community/Harrison4Saffron/data/Condition/1125636"
              },
              {
                "reference": "https://gw.interop.community/Harrison4Saffron/data/Condition/1626592"
              },
              {
                "reference": "https://gw.interop.community/Harrison4Saffron/data/Condition/335246"
              }
            ]
          },
          {
            "code": {
              "coding": [
                {
                  "system": "http://loinc.org",
                  "code": "11348-0",
                  "display": "Past Medical History Narrative"
                }
              ],
              "text": "Past Medical History Narrative"
            }
          },
          {
            "code": {
              "coding": [
                {
                  "system": "http://loinc.org",
                  "code": "29549-3",
                  "display": "Medications Administered Narrative"
                }
              ],
              "text": "Medications Administered Narrative"
            }
          },
          {
            "code": {
              "coding": [
                {
                  "system": "http://loinc.org",
                  "code": "30954-2",
                  "display": "Results Section Narrative"
                }
              ],
              "text": "Results Section Narrative"
            }
          },
          {
            "code": {
              "coding": [
                {
                  "system": "http://loinc.org",
                  "code": "18776-5",
                  "display": "Plan of Treatment Narrative"
                }
              ],
              "text": "Plan of Treatment Narrative"
            },
            "entry": [
              {
                "reference": "https://gw.interop.community/Harrison4Saffron/data/MedicationRequest/440659"
              },
              {
                "reference": "https://gw.interop.community/Harrison4Saffron/data/MedicationRequest/355310"
              },
              {
                "reference": "https://gw.interop.community/Harrison4Saffron/data/MedicationRequest/1847303"
              },
              {
                "reference": "https://gw.interop.community/Harrison4Saffron/data/MedicationRequest/187791"
              },
              {
                "reference": "https://gw.interop.community/Harrison4Saffron/data/MedicationRequest/224656"
              },
              {
                "reference": "https://gw.interop.community/Harrison4Saffron/data/MedicationRequest/45102"
              },
              {
                "reference": "https://gw.interop.community/Harrison4Saffron/data/MedicationRequest/529253"
              },
              {
                "reference": "https://gw.interop.community/Harrison4Saffron/data/MedicationRequest/1724979"
              },
              {
                "reference": "https://gw.interop.community/Harrison4Saffron/data/MedicationRequest/118494"
              },
              {
                "reference": "https://gw.interop.community/Harrison4Saffron/data/MedicationRequest/45040"
              },
              {
                "reference": "https://gw.interop.community/Harrison4Saffron/data/MedicationRequest/640151"
              },
              {
                "reference": "https://gw.interop.community/Harrison4Saffron/data/MedicationRequest/671200"
              },
              {
                "reference": "https://gw.interop.community/Harrison4Saffron/data/MedicationRequest/440546"
              },
              {
                "reference": "https://gw.interop.community/Harrison4Saffron/data/MedicationRequest/2395107"
              },
              {
                "reference": "https://gw.interop.community/Harrison4Saffron/data/MedicationRequest/134219"
              },
              {
                "reference": "https://gw.interop.community/Harrison4Saffron/data/MedicationRequest/284449"
              },
              {
                "reference": "https://gw.interop.community/Harrison4Saffron/data/MedicationRequest/134220"
              },
              {
                "reference": "https://gw.interop.community/Harrison4Saffron/data/MedicationRequest/1427421"
              },
              {
                "reference": "https://gw.interop.community/Harrison4Saffron/data/MedicationRequest/601162"
              }
            ]
          },
          {
            "code": {
              "coding": [
                {
                  "system": "http://loinc.org",
                  "code": "11369-6",
                  "display": "Immunizations Narrative"
                }
              ],
              "text": "Immunizations Narrative"
            },
            "entry": [
              {
                "reference": "https://gw.interop.community/Harrison4Saffron/data/Immunization/472445"
              },
              {
                "reference": "https://gw.interop.community/Harrison4Saffron/data/Immunization/2221534"
              },
              {
                "reference": "https://gw.interop.community/Harrison4Saffron/data/Immunization/90486"
              },
              {
                "reference": "https://gw.interop.community/Harrison4Saffron/data/Immunization/472446"
              },
              {
                "reference": "https://gw.interop.community/Harrison4Saffron/data/Immunization/2492629"
              },
              {
                "reference": "https://gw.interop.community/Harrison4Saffron/data/Immunization/90485"
              }
            ]
          },
          {
            "code": {
              "coding": [
                {
                  "system": "http://loinc.org",
                  "code": "47519-4",
                  "display": "Procedure Section Narrative"
                }
              ],
              "text": "Procedure Section Narrative"
            }
          },
          {
            "code": {
              "coding": [
                {
                  "system": "http://loinc.org",
                  "code": "8716-3",
                  "display": "Vital Signs Narrative"
                }
              ],
              "text": "Vital Signs Narrative"
            }
          },
          {
            "code": {
              "coding": [
                {
                  "system": "http://loinc.org",
                  "code": "29762-2",
                  "display": "Social History Narrative"
                }
              ],
              "text": "Social History Narrative"
            }
          },
          {
            "code": {
              "coding": [
                {
                  "system": "http://loinc.org",
                  "code": "90767-5",
                  "display": "Pregnancy Section Narrative"
                }
              ],
              "text": "Pregnancy Section Narrative"
            }
          },
          {
            "code": {
              "coding": [
                {
                  "system": "http://loinc.org",
                  "code": "83910-0",
                  "display": "Emergency Outbreak Section Narrative"
                }
              ],
              "text": "Emergency Outbreak Section Narrative"
            }
          }
        ]
      }
    },
    {
      "fullUrl": "https://gw.interop.community/Harrison4Saffron/data/MedicationRequest/355310",
      "resource": {
        "resourceType": "MedicationRequest",
        "id": "355310",
        "meta": {
          "versionId": "1",
          "lastUpdated": "2023-04-04T12:20:42+00:00",
          "source": "#UTdjx3q42Xla18cU"
        },
        "text": {
          "status": "generated",
          "div": "<div xmlns=\"http://www.w3.org/1999/xhtml\">This is a simple narrative with only plain text</div>"
        },
        "extension": [
          {
            "url": "http://mihin.org/extension/copyright",
            "valueString": "Copyright 2014-2022 Michigan Health Information Network Shared Services. Licensed under the Apache License, Version 2.0 (the 'License'); you may not use this file except in compliance with the License. You may obtain a copy of the License at  http://www.apache.org/licenses/LICENSE-2.0.  Unless required by applicable law or agreed to in writing, software distributed under the License is distributed on an 'AS IS' BASIS, WITHOUT WARRANTIES OR CONDITIONS OF ANY KIND, either express or implied. See the License for the specific language governing permissions and limitations under the License."
          },
          {
            "url": "http://build.fhir.org/ig/HL7/davinci-crd/R4/ext-insurance.html",
            "valueReference": {
              "reference": "Coverage/284246",
              "display": "Denise Fuller Archer Coverage"
            }
          }
        ],
        "identifier": [
          {
            "use": "official",
            "system": "http://mihin.org/fhir/sid/elementId",
            "value": "a5a1800c-44f0-43db-9306-0646394342c4"
          }
        ],
        "status": "active",
        "intent": "order",
        "medicationCodeableConcept": {
          "coding": [
            {
              "system": "http://www.nlm.nih.gov/research/umls/rxnorm",
              "code": "248656",
              "display": "Azithromycin 500 MG Oral Tablet"
            }
          ]
        },
        "subject": {
          "reference": "Patient/23809",
          "display": "Denise Fuller Archer"
        },
        "encounter": {
          "reference": "Encounter/355299",
          "display": "Genital  Herpes [Ambulatory_Encounter [Encounter]]"
        },
        "authoredOn": "2018-09-07T04:00:00+00:00",
        "requester": {
          "reference": "Practitioner/21115",
          "identifier": {
            "system": "http://hl7.org/fhir/sid/us-npi",
            "value": "9999999885"
          },
          "display": "Doris Jamie Guzman MD"
        },
        "reasonCode": [
          {
            "coding": [
              {
                "system": "http://snomed.info/sct",
                "code": "33839006",
                "display": "Genital herpes simplex (disorder)"
              }
            ]
          },
          {
            "coding": [
              {
                "system": "http://hl7.org/fhir/sid/icd-10",
                "code": "A60.9",
                "display": "Genital herpes simplex (disorder)"
              }
            ]
          }
        ],
        "insurance": [
          {
            "reference": "Coverage/284246",
            "display": "Denise Fuller Archer Coverage"
          }
        ]
      }
    },
    {
      "fullUrl": "https://gw.interop.community/Harrison4Saffron/data/Condition/708697",
      "resource": {
        "resourceType": "Condition",
        "id": "708697",
        "meta": {
          "versionId": "1",
          "lastUpdated": "2023-04-04T23:44:32+00:00",
          "source": "#HL4A2r9eLLti3i5q"
        },
        "text": {
          "status": "generated",
          "div": "<div xmlns=\"http://www.w3.org/1999/xhtml\">This is a simple narrative with only plain text</div>"
        },
        "extension": [
          {
            "url": "http://mihin.org/extension/copyright",
            "valueString": "Copyright 2014-2022 Michigan Health Information Network Shared Services. Licensed under the Apache License, Version 2.0 (the 'License'); you may not use this file except in compliance with the License. You may obtain a copy of the License at  http://www.apache.org/licenses/LICENSE-2.0.  Unless required by applicable law or agreed to in writing, software distributed under the License is distributed on an 'AS IS' BASIS, WITHOUT WARRANTIES OR CONDITIONS OF ANY KIND, either express or implied. See the License for the specific language governing permissions and limitations under the License."
          }
        ],
        "identifier": [
          {
            "use": "official",
            "system": "http://mihin.org/fhir/sid/elementId",
            "value": "e8c8a829-ea4b-4631-b5da-5a6b98ed6c6f"
          }
        ],
        "clinicalStatus": {
          "coding": [
            {
              "system": "http://hl7.org/fhir/ValueSet/condition-clinical",
              "code": "active",
              "display": "Active"
            }
          ]
        },
        "verificationStatus": {
          "coding": [
            {
              "system": "http://hl7.org/fhir/ValueSet/condition-ver-status",
              "code": "confirmed",
              "display": "Confirmed"
            }
          ]
        },
        "category": [
          {
            "coding": [
              {
                "system": "http://hl7.org/fhir/ValueSet/condition-category",
                "code": "encounter-diagnosis",
                "display": "Encounter Diagnosis"
              }
            ]
          }
        ],
        "code": {
          "coding": [
            {
              "system": "http://snomed.info/sct",
              "code": "57676002",
              "display": "Joint pain (finding)"
            }
          ]
        },
        "subject": {
          "reference": "Patient/23809",
          "display": "Denise Fuller Archer"
        },
        "encounter": {
          "reference": "Encounter/708692",
          "display": "infection [Encounter for Test [Encounter]]"
        },
        "onsetDateTime": "2020-04-05T00:00:00+00:00",
        "recordedDate": "2020-04-05T00:00:00+00:00",
        "asserter": {
          "reference": "Practitioner/19893",
          "identifier": {
            "system": "http://hl7.org/fhir/sid/us-npi",
            "value": "9999999339"
          },
          "display": "Julio Zachary Yates MD"
        }
      }
    },
    {
      "fullUrl": "https://gw.interop.community/Harrison4Saffron/data/Condition/601157",
      "resource": {
        "resourceType": "Condition",
        "id": "601157",
        "meta": {
          "versionId": "1",
          "lastUpdated": "2023-04-04T20:22:59+00:00",
          "source": "#3r8RgCHOy268IsK9"
        },
        "text": {
          "status": "generated",
          "div": "<div xmlns=\"http://www.w3.org/1999/xhtml\">This is a simple narrative with only plain text</div>"
        },
        "extension": [
          {
            "url": "http://mihin.org/extension/copyright",
            "valueString": "Copyright 2014-2022 Michigan Health Information Network Shared Services. Licensed under the Apache License, Version 2.0 (the 'License'); you may not use this file except in compliance with the License. You may obtain a copy of the License at  http://www.apache.org/licenses/LICENSE-2.0.  Unless required by applicable law or agreed to in writing, software distributed under the License is distributed on an 'AS IS' BASIS, WITHOUT WARRANTIES OR CONDITIONS OF ANY KIND, either express or implied. See the License for the specific language governing permissions and limitations under the License."
          }
        ],
        "identifier": [
          {
            "use": "official",
            "system": "http://mihin.org/fhir/sid/elementId",
            "value": "cbd99ff0-043a-4acd-9f81-7f0eaf6bd709"
          }
        ],
        "clinicalStatus": {
          "coding": [
            {
              "system": "http://hl7.org/fhir/ValueSet/condition-clinical",
              "code": "active",
              "display": "Active"
            }
          ]
        },
        "verificationStatus": {
          "coding": [
            {
              "system": "http://hl7.org/fhir/ValueSet/condition-ver-status",
              "code": "confirmed",
              "display": "Confirmed"
            }
          ]
        },
        "category": [
          {
            "coding": [
              {
                "system": "http://hl7.org/fhir/ValueSet/condition-category",
                "code": "encounter-diagnosis",
                "display": "Encounter Diagnosis"
              }
            ]
          }
        ],
        "code": {
          "coding": [
            {
              "system": "http://snomed.info/sct",
              "code": "33839006",
              "display": "Genital herpes simplex (disorder)"
            },
            {
              "system": "http://hl7.org/fhir/sid/icd-10",
              "code": "A60.9",
              "display": "Genital herpes simplex (disorder)"
            }
          ]
        },
        "subject": {
          "reference": "Patient/23809",
          "display": "Denise Fuller Archer"
        },
        "encounter": {
          "reference": "Encounter/601037",
          "display": "Genital  Herpes [Ambulatory_Encounter [Encounter]]"
        },
        "onsetDateTime": "2019-10-27T08:20:00+00:00",
        "recordedDate": "2019-10-27T08:20:00+00:00",
        "asserter": {
          "reference": "Practitioner/21115",
          "identifier": {
            "system": "http://hl7.org/fhir/sid/us-npi",
            "value": "9999999885"
          },
          "display": "Doris Jamie Guzman MD"
        }
      }
    },
    {
      "fullUrl": "https://gw.interop.community/Harrison4Saffron/data/MedicationRequest/187791",
      "resource": {
        "resourceType": "MedicationRequest",
        "id": "187791",
        "meta": {
          "versionId": "1",
          "lastUpdated": "2023-04-04T07:03:35+00:00",
          "source": "#llmma6GQxch7jEr2"
        },
        "text": {
          "status": "generated",
          "div": "<div xmlns=\"http://www.w3.org/1999/xhtml\">This is a simple narrative with only plain text</div>"
        },
        "extension": [
          {
            "url": "http://mihin.org/extension/copyright",
            "valueString": "Copyright 2014-2022 Michigan Health Information Network Shared Services. Licensed under the Apache License, Version 2.0 (the 'License'); you may not use this file except in compliance with the License. You may obtain a copy of the License at  http://www.apache.org/licenses/LICENSE-2.0.  Unless required by applicable law or agreed to in writing, software distributed under the License is distributed on an 'AS IS' BASIS, WITHOUT WARRANTIES OR CONDITIONS OF ANY KIND, either express or implied. See the License for the specific language governing permissions and limitations under the License."
          },
          {
            "url": "http://build.fhir.org/ig/HL7/davinci-crd/R4/ext-insurance.html",
            "valueReference": {
              "reference": "Coverage/101314",
              "display": "Denise Fuller Archer Coverage"
            }
          }
        ],
        "identifier": [
          {
            "use": "official",
            "system": "http://mihin.org/fhir/sid/elementId",
            "value": "509e80e5-5d58-4afa-ab61-0ba77dadc4f0"
          }
        ],
        "status": "active",
        "intent": "order",
        "medicationCodeableConcept": {
          "coding": [
            {
              "system": "http://www.nlm.nih.gov/research/umls/rxnorm",
              "code": "248656",
              "display": "Azithromycin 500 MG Oral Tablet"
            }
          ]
        },
        "subject": {
          "reference": "Patient/23809",
          "display": "Denise Fuller Archer"
        },
        "encounter": {
          "reference": "Encounter/188072",
          "display": "Genital  Herpes [Ambulatory_Encounter [Encounter]]"
        },
        "authoredOn": "2017-11-27T22:40:00+00:00",
        "requester": {
          "reference": "Practitioner/21115",
          "identifier": {
            "system": "http://hl7.org/fhir/sid/us-npi",
            "value": "9999999885"
          },
          "display": "Doris Jamie Guzman MD"
        },
        "reasonCode": [
          {
            "coding": [
              {
                "system": "http://snomed.info/sct",
                "code": "33839006",
                "display": "Genital herpes simplex (disorder)"
              }
            ]
          },
          {
            "coding": [
              {
                "system": "http://hl7.org/fhir/sid/icd-10",
                "code": "A60.9",
                "display": "Genital herpes simplex (disorder)"
              }
            ]
          }
        ],
        "insurance": [
          {
            "reference": "Coverage/101314",
            "display": "Denise Fuller Archer Coverage"
          }
        ]
      }
    },
    {
      "fullUrl": "https://gw.interop.community/Harrison4Saffron/data/MedicationRequest/224656",
      "resource": {
        "resourceType": "MedicationRequest",
        "id": "224656",
        "meta": {
          "versionId": "1",
          "lastUpdated": "2023-04-04T08:15:31+00:00",
          "source": "#XM6crtPO0SOkAhqs"
        },
        "text": {
          "status": "generated",
          "div": "<div xmlns=\"http://www.w3.org/1999/xhtml\">This is a simple narrative with only plain text</div>"
        },
        "extension": [
          {
            "url": "http://mihin.org/extension/copyright",
            "valueString": "Copyright 2014-2022 Michigan Health Information Network Shared Services. Licensed under the Apache License, Version 2.0 (the 'License'); you may not use this file except in compliance with the License. You may obtain a copy of the License at  http://www.apache.org/licenses/LICENSE-2.0.  Unless required by applicable law or agreed to in writing, software distributed under the License is distributed on an 'AS IS' BASIS, WITHOUT WARRANTIES OR CONDITIONS OF ANY KIND, either express or implied. See the License for the specific language governing permissions and limitations under the License."
          },
          {
            "url": "http://build.fhir.org/ig/HL7/davinci-crd/R4/ext-insurance.html",
            "valueReference": {
              "reference": "Coverage/101314",
              "display": "Denise Fuller Archer Coverage"
            }
          }
        ],
        "identifier": [
          {
            "use": "official",
            "system": "http://mihin.org/fhir/sid/elementId",
            "value": "2c7a11dc-9f7f-4636-be6f-2dae47f48253"
          }
        ],
        "status": "active",
        "intent": "order",
        "medicationCodeableConcept": {
          "coding": [
            {
              "system": "http://www.nlm.nih.gov/research/umls/rxnorm",
              "code": "757594",
              "display": "Jolivette 28 Day Pack"
            }
          ]
        },
        "subject": {
          "reference": "Patient/23809",
          "display": "Denise Fuller Archer"
        },
        "encounter": {
          "reference": "Encounter/224653",
          "display": "Oral Contraceptive [Encounter_For_Oral_Contraceptive [Encounter]]"
        },
        "authoredOn": "2018-01-31T10:20:00+00:00",
        "requester": {
          "reference": "Practitioner/21115",
          "identifier": {
            "system": "http://hl7.org/fhir/sid/us-npi",
            "value": "9999999885"
          },
          "display": "Doris Jamie Guzman MD"
        },
        "insurance": [
          {
            "reference": "Coverage/101314",
            "display": "Denise Fuller Archer Coverage"
          }
        ]
      }
    },
    {
      "fullUrl": "https://gw.interop.community/Harrison4Saffron/data/Condition/187786",
      "resource": {
        "resourceType": "Condition",
        "id": "187786",
        "meta": {
          "versionId": "1",
          "lastUpdated": "2023-04-04T07:03:35+00:00",
          "source": "#llmma6GQxch7jEr2"
        },
        "text": {
          "status": "generated",
          "div": "<div xmlns=\"http://www.w3.org/1999/xhtml\">This is a simple narrative with only plain text</div>"
        },
        "extension": [
          {
            "url": "http://mihin.org/extension/copyright",
            "valueString": "Copyright 2014-2022 Michigan Health Information Network Shared Services. Licensed under the Apache License, Version 2.0 (the 'License'); you may not use this file except in compliance with the License. You may obtain a copy of the License at  http://www.apache.org/licenses/LICENSE-2.0.  Unless required by applicable law or agreed to in writing, software distributed under the License is distributed on an 'AS IS' BASIS, WITHOUT WARRANTIES OR CONDITIONS OF ANY KIND, either express or implied. See the License for the specific language governing permissions and limitations under the License."
          }
        ],
        "identifier": [
          {
            "use": "official",
            "system": "http://mihin.org/fhir/sid/elementId",
            "value": "8b77f73c-6127-4ca2-b14d-4f33fe10674e"
          }
        ],
        "clinicalStatus": {
          "coding": [
            {
              "system": "http://hl7.org/fhir/ValueSet/condition-clinical",
              "code": "active",
              "display": "Active"
            }
          ]
        },
        "verificationStatus": {
          "coding": [
            {
              "system": "http://hl7.org/fhir/ValueSet/condition-ver-status",
              "code": "confirmed",
              "display": "Confirmed"
            }
          ]
        },
        "category": [
          {
            "coding": [
              {
                "system": "http://hl7.org/fhir/ValueSet/condition-category",
                "code": "encounter-diagnosis",
                "display": "Encounter Diagnosis"
              }
            ]
          }
        ],
        "code": {
          "coding": [
            {
              "system": "http://snomed.info/sct",
              "code": "33839006",
              "display": "Genital herpes simplex (disorder)"
            },
            {
              "system": "http://hl7.org/fhir/sid/icd-10",
              "code": "A60.9",
              "display": "Genital herpes simplex (disorder)"
            }
          ]
        },
        "subject": {
          "reference": "Patient/23809",
          "display": "Denise Fuller Archer"
        },
        "encounter": {
          "reference": "Encounter/188072",
          "display": "Genital  Herpes [Ambulatory_Encounter [Encounter]]"
        },
        "onsetDateTime": "2017-11-06T14:40:00+00:00",
        "recordedDate": "2017-11-06T14:40:00+00:00",
        "asserter": {
          "reference": "Practitioner/21115",
          "identifier": {
            "system": "http://hl7.org/fhir/sid/us-npi",
            "value": "9999999885"
          },
          "display": "Doris Jamie Guzman MD"
        }
      }
    },
    {
      "fullUrl": "https://gw.interop.community/Harrison4Saffron/data/Location/18874",
      "resource": {
        "resourceType": "Location",
        "id": "18874",
        "meta": {
          "versionId": "2",
          "lastUpdated": "2023-05-05T15:08:21+00:00",
          "source": "#7vCMD84exoIZe0Rh"
        },
        "text": {
          "status": "generated",
          "div": "<div xmlns=\"http://www.w3.org/1999/xhtml\">This is a simple narrative with only plain text</div>"
        },
        "extension": [
          {
            "url": "http://mihin.org/extension/copyright",
            "valueString": "Copyright 2014-2022 Michigan Health Information Network Shared Services. Licensed under the Apache License, Version 2.0 (the 'License'); you may not use this file except in compliance with the License. You may obtain a copy of the License at  http://www.apache.org/licenses/LICENSE-2.0.  Unless required by applicable law or agreed to in writing, software distributed under the License is distributed on an 'AS IS' BASIS, WITHOUT WARRANTIES OR CONDITIONS OF ANY KIND, either express or implied. See the License for the specific language governing permissions and limitations under the License."
          }
        ],
        "identifier": [
          {
            "use": "official",
            "system": "http://www.hl7.org/oid/",
            "value": "1.2.3.4.287"
          }
        ],
        "status": "active",
        "name": "VA Medical Center",
        "mode": "instance",
        "type": [
          {
            "text": "Exclusive Provider Organization"
          }
        ],
        "telecom": [
          {
            "system": "phone",
            "value": "(586) 555-7901",
            "use": "work"
          }
        ],
        "address": {
          "use": "work",
          "type": "physical",
          "line": [
            "93 N Colorado Street"
          ],
          "city": "Clinton Township",
          "district": "Harrison",
          "state": "Anywhere",
          "postalCode": "48035"
        },
        "physicalType": {
          "coding": [
            {
              "system": "http://terminology.hl7.org/CodeSystem/location-physical-type",
              "code": "bu",
              "display": "Building"
            }
          ]
        },
        "position": {
          "longitude": -82.9015008530677,
          "latitude": 42.58144644971239
        },
        "managingOrganization": {
          "reference": "Organization/17420",
          "display": "VA Medical Center"
        },
        "endpoint": [
          {
            "reference": "Endpoint/17702",
            "display": "VA Medical Center"
          }
        ]
      }
    },
    {
      "fullUrl": "https://gw.interop.community/Harrison4Saffron/data/Condition/1724973",
      "resource": {
        "resourceType": "Condition",
        "id": "1724973",
        "meta": {
          "versionId": "1",
          "lastUpdated": "2023-04-06T05:12:47+00:00",
          "source": "#lcY2GnMBaIQWINhX"
        },
        "text": {
          "status": "generated",
          "div": "<div xmlns=\"http://www.w3.org/1999/xhtml\">This is a simple narrative with only plain text</div>"
        },
        "extension": [
          {
            "url": "http://mihin.org/extension/copyright",
            "valueString": "Copyright 2014-2022 Michigan Health Information Network Shared Services. Licensed under the Apache License, Version 2.0 (the 'License'); you may not use this file except in compliance with the License. You may obtain a copy of the License at  http://www.apache.org/licenses/LICENSE-2.0.  Unless required by applicable law or agreed to in writing, software distributed under the License is distributed on an 'AS IS' BASIS, WITHOUT WARRANTIES OR CONDITIONS OF ANY KIND, either express or implied. See the License for the specific language governing permissions and limitations under the License."
          }
        ],
        "identifier": [
          {
            "use": "official",
            "system": "http://mihin.org/fhir/sid/elementId",
            "value": "9d191df4-04bb-4695-adc6-b1803b21a0f2"
          }
        ],
        "clinicalStatus": {
          "coding": [
            {
              "system": "http://hl7.org/fhir/ValueSet/condition-clinical",
              "code": "active",
              "display": "Active"
            }
          ]
        },
        "verificationStatus": {
          "coding": [
            {
              "system": "http://hl7.org/fhir/ValueSet/condition-ver-status",
              "code": "confirmed",
              "display": "Confirmed"
            }
          ]
        },
        "category": [
          {
            "coding": [
              {
                "system": "http://hl7.org/fhir/ValueSet/condition-category",
                "code": "encounter-diagnosis",
                "display": "Encounter Diagnosis"
              }
            ]
          }
        ],
        "code": {
          "coding": [
            {
              "system": "http://snomed.info/sct",
              "code": "312099009",
              "display": "Genitourinary chlamydia infection (disorder)"
            },
            {
              "system": "http://hl7.org/fhir/sid/icd-10",
              "code": "A56.2",
              "display": "Genitourinary chlamydia infection (disorder)"
            }
          ]
        },
        "subject": {
          "reference": "Patient/23809",
          "display": "Denise Fuller Archer"
        },
        "encounter": {
          "reference": "Encounter/1724971",
          "display": "Chlamydia [Ambulatory_Encounter [Encounter]]"
        },
        "onsetDateTime": "2020-10-13T09:40:00+00:00",
        "recordedDate": "2020-10-13T09:40:00+00:00",
        "asserter": {
          "reference": "Practitioner/21115",
          "identifier": {
            "system": "http://hl7.org/fhir/sid/us-npi",
            "value": "9999999885"
          },
          "display": "Doris Jamie Guzman MD"
        }
      }
    },
    {
      "fullUrl": "https://gw.interop.community/Harrison4Saffron/data/MedicationRequest/118494",
      "resource": {
        "resourceType": "MedicationRequest",
        "id": "118494",
        "meta": {
          "versionId": "1",
          "lastUpdated": "2023-04-04T04:45:27+00:00",
          "source": "#5nzjfjHCX65ErUsV"
        },
        "text": {
          "status": "generated",
          "div": "<div xmlns=\"http://www.w3.org/1999/xhtml\">This is a simple narrative with only plain text</div>"
        },
        "extension": [
          {
            "url": "http://mihin.org/extension/copyright",
            "valueString": "Copyright 2014-2022 Michigan Health Information Network Shared Services. Licensed under the Apache License, Version 2.0 (the 'License'); you may not use this file except in compliance with the License. You may obtain a copy of the License at  http://www.apache.org/licenses/LICENSE-2.0.  Unless required by applicable law or agreed to in writing, software distributed under the License is distributed on an 'AS IS' BASIS, WITHOUT WARRANTIES OR CONDITIONS OF ANY KIND, either express or implied. See the License for the specific language governing permissions and limitations under the License."
          },
          {
            "url": "http://build.fhir.org/ig/HL7/davinci-crd/R4/ext-insurance.html",
            "valueReference": {
              "reference": "Coverage/101314",
              "display": "Denise Fuller Archer Coverage"
            }
          }
        ],
        "identifier": [
          {
            "use": "official",
            "system": "http://mihin.org/fhir/sid/elementId",
            "value": "2cce6456-00e0-4588-8c56-3e0e53575e95"
          }
        ],
        "status": "active",
        "intent": "order",
        "medicationCodeableConcept": {
          "coding": [
            {
              "system": "http://www.nlm.nih.gov/research/umls/rxnorm",
              "code": "248656",
              "display": "Azithromycin 500 MG Oral Tablet"
            }
          ]
        },
        "subject": {
          "reference": "Patient/23809",
          "display": "Denise Fuller Archer"
        },
        "encounter": {
          "reference": "Encounter/118487",
          "display": "Genital  Herpes [Ambulatory_Encounter [Encounter]]"
        },
        "authoredOn": "2017-07-01T15:20:00+00:00",
        "requester": {
          "reference": "Practitioner/21115",
          "identifier": {
            "system": "http://hl7.org/fhir/sid/us-npi",
            "value": "9999999885"
          },
          "display": "Doris Jamie Guzman MD"
        },
        "reasonCode": [
          {
            "coding": [
              {
                "system": "http://snomed.info/sct",
                "code": "33839006",
                "display": "Genital herpes simplex (disorder)"
              }
            ]
          },
          {
            "coding": [
              {
                "system": "http://hl7.org/fhir/sid/icd-10",
                "code": "A60.9",
                "display": "Genital herpes simplex (disorder)"
              }
            ]
          }
        ],
        "insurance": [
          {
            "reference": "Coverage/101314",
            "display": "Denise Fuller Archer Coverage"
          }
        ]
      }
    },
    {
      "fullUrl": "https://gw.interop.community/Harrison4Saffron/data/Condition/662589",
      "resource": {
        "resourceType": "Condition",
        "id": "662589",
        "meta": {
          "versionId": "1",
          "lastUpdated": "2023-04-04T22:16:43+00:00",
          "source": "#pK5B7WLnwgeuEyEr"
        },
        "text": {
          "status": "generated",
          "div": "<div xmlns=\"http://www.w3.org/1999/xhtml\">This is a simple narrative with only plain text</div>"
        },
        "extension": [
          {
            "url": "http://mihin.org/extension/copyright",
            "valueString": "Copyright 2014-2022 Michigan Health Information Network Shared Services. Licensed under the Apache License, Version 2.0 (the 'License'); you may not use this file except in compliance with the License. You may obtain a copy of the License at  http://www.apache.org/licenses/LICENSE-2.0.  Unless required by applicable law or agreed to in writing, software distributed under the License is distributed on an 'AS IS' BASIS, WITHOUT WARRANTIES OR CONDITIONS OF ANY KIND, either express or implied. See the License for the specific language governing permissions and limitations under the License."
          }
        ],
        "identifier": [
          {
            "use": "official",
            "system": "http://mihin.org/fhir/sid/elementId",
            "value": "4a94113a-8b1f-469e-b315-246bb7fe99d4"
          }
        ],
        "clinicalStatus": {
          "coding": [
            {
              "system": "http://hl7.org/fhir/ValueSet/condition-clinical",
              "code": "active",
              "display": "Active"
            }
          ]
        },
        "verificationStatus": {
          "coding": [
            {
              "system": "http://hl7.org/fhir/ValueSet/condition-ver-status",
              "code": "confirmed",
              "display": "Confirmed"
            }
          ]
        },
        "category": [
          {
            "coding": [
              {
                "system": "http://hl7.org/fhir/ValueSet/condition-category",
                "code": "encounter-diagnosis",
                "display": "Encounter Diagnosis"
              }
            ]
          }
        ],
        "code": {
          "coding": [
            {
              "system": "http://snomed.info/sct",
              "code": "444814009",
              "display": "Viral sinusitis (disorder)"
            },
            {
              "system": "http://hl7.org/fhir/sid/icd-10",
              "code": "J01.90",
              "display": "Viral sinusitis (disorder)"
            }
          ]
        },
        "subject": {
          "reference": "Patient/23809",
          "display": "Denise Fuller Archer"
        },
        "encounter": {
          "reference": "Encounter/662587",
          "display": "Sinusitis [Doctor_Visit [Encounter]]"
        },
        "onsetDateTime": "2020-02-11T10:00:00+00:00",
        "recordedDate": "2020-02-11T10:00:00+00:00",
        "asserter": {
          "reference": "Practitioner/20095",
          "identifier": {
            "system": "http://hl7.org/fhir/sid/us-npi",
            "value": "9999999456"
          },
          "display": "Reginald Stein Lin MD"
        }
      }
    },
    {
      "fullUrl": "https://gw.interop.community/Harrison4Saffron/data/MedicationRequest/440546",
      "resource": {
        "resourceType": "MedicationRequest",
        "id": "440546",
        "meta": {
          "versionId": "1",
          "lastUpdated": "2023-04-04T15:18:49+00:00",
          "source": "#7sQbJXDRcFwWIJiO"
        },
        "text": {
          "status": "generated",
          "div": "<div xmlns=\"http://www.w3.org/1999/xhtml\">This is a simple narrative with only plain text</div>"
        },
        "extension": [
          {
            "url": "http://mihin.org/extension/copyright",
            "valueString": "Copyright 2014-2022 Michigan Health Information Network Shared Services. Licensed under the Apache License, Version 2.0 (the 'License'); you may not use this file except in compliance with the License. You may obtain a copy of the License at  http://www.apache.org/licenses/LICENSE-2.0.  Unless required by applicable law or agreed to in writing, software distributed under the License is distributed on an 'AS IS' BASIS, WITHOUT WARRANTIES OR CONDITIONS OF ANY KIND, either express or implied. See the License for the specific language governing permissions and limitations under the License."
          },
          {
            "url": "http://build.fhir.org/ig/HL7/davinci-crd/R4/ext-insurance.html",
            "valueReference": {
              "reference": "Coverage/284246",
              "display": "Denise Fuller Archer Coverage"
            }
          }
        ],
        "identifier": [
          {
            "use": "official",
            "system": "http://mihin.org/fhir/sid/elementId",
            "value": "85027da1-b017-496f-9cbc-153d1d073be3"
          }
        ],
        "status": "active",
        "intent": "order",
        "medicationCodeableConcept": {
          "coding": [
            {
              "system": "http://www.nlm.nih.gov/research/umls/rxnorm",
              "code": "1605257",
              "display": "Liletta 52 MG Intrauterine System"
            }
          ]
        },
        "subject": {
          "reference": "Patient/23809",
          "display": "Denise Fuller Archer"
        },
        "encounter": {
          "reference": "Encounter/440543",
          "display": "Intrauterine Device [IUD_Consultation_Encounter [Encounter]]"
        },
        "authoredOn": "2019-02-10T15:20:00+00:00",
        "requester": {
          "reference": "Practitioner/21115",
          "identifier": {
            "system": "http://hl7.org/fhir/sid/us-npi",
            "value": "9999999885"
          },
          "display": "Doris Jamie Guzman MD"
        },
        "insurance": [
          {
            "reference": "Coverage/284246",
            "display": "Denise Fuller Archer Coverage"
          }
        ]
      }
    },
    {
      "fullUrl": "https://gw.interop.community/Harrison4Saffron/data/Condition/708696",
      "resource": {
        "resourceType": "Condition",
        "id": "708696",
        "meta": {
          "versionId": "1",
          "lastUpdated": "2023-04-04T23:44:32+00:00",
          "source": "#HL4A2r9eLLti3i5q"
        },
        "text": {
          "status": "generated",
          "div": "<div xmlns=\"http://www.w3.org/1999/xhtml\">This is a simple narrative with only plain text</div>"
        },
        "extension": [
          {
            "url": "http://mihin.org/extension/copyright",
            "valueString": "Copyright 2014-2022 Michigan Health Information Network Shared Services. Licensed under the Apache License, Version 2.0 (the 'License'); you may not use this file except in compliance with the License. You may obtain a copy of the License at  http://www.apache.org/licenses/LICENSE-2.0.  Unless required by applicable law or agreed to in writing, software distributed under the License is distributed on an 'AS IS' BASIS, WITHOUT WARRANTIES OR CONDITIONS OF ANY KIND, either express or implied. See the License for the specific language governing permissions and limitations under the License."
          }
        ],
        "identifier": [
          {
            "use": "official",
            "system": "http://mihin.org/fhir/sid/elementId",
            "value": "be7b9553-7fb4-49e1-b404-bc3f622d4b4a"
          }
        ],
        "clinicalStatus": {
          "coding": [
            {
              "system": "http://hl7.org/fhir/ValueSet/condition-clinical",
              "code": "active",
              "display": "Active"
            }
          ]
        },
        "verificationStatus": {
          "coding": [
            {
              "system": "http://hl7.org/fhir/ValueSet/condition-ver-status",
              "code": "confirmed",
              "display": "Confirmed"
            }
          ]
        },
        "category": [
          {
            "coding": [
              {
                "system": "http://hl7.org/fhir/ValueSet/condition-category",
                "code": "encounter-diagnosis",
                "display": "Encounter Diagnosis"
              }
            ]
          }
        ],
        "code": {
          "coding": [
            {
              "system": "http://snomed.info/sct",
              "code": "68962001",
              "display": "Muscle pain (finding)"
            }
          ]
        },
        "subject": {
          "reference": "Patient/23809",
          "display": "Denise Fuller Archer"
        },
        "encounter": {
          "reference": "Encounter/708692",
          "display": "infection [Encounter for Test [Encounter]]"
        },
        "onsetDateTime": "2020-04-05T00:00:00+00:00",
        "recordedDate": "2020-04-05T00:00:00+00:00",
        "asserter": {
          "reference": "Practitioner/19893",
          "identifier": {
            "system": "http://hl7.org/fhir/sid/us-npi",
            "value": "9999999339"
          },
          "display": "Julio Zachary Yates MD"
        }
      }
    },
    {
      "fullUrl": "https://gw.interop.community/Harrison4Saffron/data/Condition/708698",
      "resource": {
        "resourceType": "Condition",
        "id": "708698",
        "meta": {
          "versionId": "1",
          "lastUpdated": "2023-04-04T23:44:32+00:00",
          "source": "#HL4A2r9eLLti3i5q"
        },
        "text": {
          "status": "generated",
          "div": "<div xmlns=\"http://www.w3.org/1999/xhtml\">This is a simple narrative with only plain text</div>"
        },
        "extension": [
          {
            "url": "http://mihin.org/extension/copyright",
            "valueString": "Copyright 2014-2022 Michigan Health Information Network Shared Services. Licensed under the Apache License, Version 2.0 (the 'License'); you may not use this file except in compliance with the License. You may obtain a copy of the License at  http://www.apache.org/licenses/LICENSE-2.0.  Unless required by applicable law or agreed to in writing, software distributed under the License is distributed on an 'AS IS' BASIS, WITHOUT WARRANTIES OR CONDITIONS OF ANY KIND, either express or implied. See the License for the specific language governing permissions and limitations under the License."
          }
        ],
        "identifier": [
          {
            "use": "official",
            "system": "http://mihin.org/fhir/sid/elementId",
            "value": "0553437f-ca93-48b3-bb42-450f6f1b9246"
          }
        ],
        "clinicalStatus": {
          "coding": [
            {
              "system": "http://hl7.org/fhir/ValueSet/condition-clinical",
              "code": "active",
              "display": "Active"
            }
          ]
        },
        "verificationStatus": {
          "coding": [
            {
              "system": "http://hl7.org/fhir/ValueSet/condition-ver-status",
              "code": "confirmed",
              "display": "Confirmed"
            }
          ]
        },
        "category": [
          {
            "coding": [
              {
                "system": "http://hl7.org/fhir/ValueSet/condition-category",
                "code": "encounter-diagnosis",
                "display": "Encounter Diagnosis"
              }
            ]
          }
        ],
        "code": {
          "coding": [
            {
              "system": "http://snomed.info/sct",
              "code": "43724002",
              "display": "Chill (finding)"
            }
          ]
        },
        "subject": {
          "reference": "Patient/23809",
          "display": "Denise Fuller Archer"
        },
        "encounter": {
          "reference": "Encounter/708692",
          "display": "infection [Encounter for Test [Encounter]]"
        },
        "onsetDateTime": "2020-04-05T00:00:00+00:00",
        "recordedDate": "2020-04-05T00:00:00+00:00",
        "asserter": {
          "reference": "Practitioner/19893",
          "identifier": {
            "system": "http://hl7.org/fhir/sid/us-npi",
            "value": "9999999339"
          },
          "display": "Julio Zachary Yates MD"
        }
      }
    },
    {
      "fullUrl": "https://gw.interop.community/Harrison4Saffron/data/Condition/671195",
      "resource": {
        "resourceType": "Condition",
        "id": "671195",
        "meta": {
          "versionId": "1",
          "lastUpdated": "2023-04-04T22:31:10+00:00",
          "source": "#MxutXFahUCbnlZki"
        },
        "text": {
          "status": "generated",
          "div": "<div xmlns=\"http://www.w3.org/1999/xhtml\">This is a simple narrative with only plain text</div>"
        },
        "extension": [
          {
            "url": "http://mihin.org/extension/copyright",
            "valueString": "Copyright 2014-2022 Michigan Health Information Network Shared Services. Licensed under the Apache License, Version 2.0 (the 'License'); you may not use this file except in compliance with the License. You may obtain a copy of the License at  http://www.apache.org/licenses/LICENSE-2.0.  Unless required by applicable law or agreed to in writing, software distributed under the License is distributed on an 'AS IS' BASIS, WITHOUT WARRANTIES OR CONDITIONS OF ANY KIND, either express or implied. See the License for the specific language governing permissions and limitations under the License."
          }
        ],
        "identifier": [
          {
            "use": "official",
            "system": "http://mihin.org/fhir/sid/elementId",
            "value": "5a4b266a-0d3d-46eb-9c9e-af25a1322d99"
          }
        ],
        "clinicalStatus": {
          "coding": [
            {
              "system": "http://hl7.org/fhir/ValueSet/condition-clinical",
              "code": "active",
              "display": "Active"
            }
          ]
        },
        "verificationStatus": {
          "coding": [
            {
              "system": "http://hl7.org/fhir/ValueSet/condition-ver-status",
              "code": "confirmed",
              "display": "Confirmed"
            }
          ]
        },
        "category": [
          {
            "coding": [
              {
                "system": "http://hl7.org/fhir/ValueSet/condition-category",
                "code": "encounter-diagnosis",
                "display": "Encounter Diagnosis"
              }
            ]
          }
        ],
        "code": {
          "coding": [
            {
              "system": "http://snomed.info/sct",
              "code": "33839006",
              "display": "Genital herpes simplex (disorder)"
            },
            {
              "system": "http://hl7.org/fhir/sid/icd-10",
              "code": "A60.9",
              "display": "Genital herpes simplex (disorder)"
            }
          ]
        },
        "subject": {
          "reference": "Patient/23809",
          "display": "Denise Fuller Archer"
        },
        "encounter": {
          "reference": "Encounter/671269",
          "display": "Genital  Herpes [Ambulatory_Encounter [Encounter]]"
        },
        "onsetDateTime": "2020-02-24T09:40:00+00:00",
        "recordedDate": "2020-02-24T09:40:00+00:00",
        "asserter": {
          "reference": "Practitioner/21115",
          "identifier": {
            "system": "http://hl7.org/fhir/sid/us-npi",
            "value": "9999999885"
          },
          "display": "Doris Jamie Guzman MD"
        }
      }
    },
    {
      "fullUrl": "https://gw.interop.community/Harrison4Saffron/data/Condition/709072",
      "resource": {
        "resourceType": "Condition",
        "id": "709072",
        "meta": {
          "versionId": "1",
          "lastUpdated": "2023-04-04T23:44:32+00:00",
          "source": "#HL4A2r9eLLti3i5q"
        },
        "text": {
          "status": "generated",
          "div": "<div xmlns=\"http://www.w3.org/1999/xhtml\">This is a simple narrative with only plain text</div>"
        },
        "extension": [
          {
            "url": "http://mihin.org/extension/copyright",
            "valueString": "Copyright 2014-2022 Michigan Health Information Network Shared Services. Licensed under the Apache License, Version 2.0 (the 'License'); you may not use this file except in compliance with the License. You may obtain a copy of the License at  http://www.apache.org/licenses/LICENSE-2.0.  Unless required by applicable law or agreed to in writing, software distributed under the License is distributed on an 'AS IS' BASIS, WITHOUT WARRANTIES OR CONDITIONS OF ANY KIND, either express or implied. See the License for the specific language governing permissions and limitations under the License."
          }
        ],
        "identifier": [
          {
            "use": "official",
            "system": "http://mihin.org/fhir/sid/elementId",
            "value": "2cec008a-9a4f-4b95-bea1-d5d37401c4f7"
          }
        ],
        "clinicalStatus": {
          "coding": [
            {
              "system": "http://hl7.org/fhir/ValueSet/condition-clinical",
              "code": "active",
              "display": "Active"
            }
          ]
        },
        "verificationStatus": {
          "coding": [
            {
              "system": "http://hl7.org/fhir/ValueSet/condition-ver-status",
              "code": "confirmed",
              "display": "Confirmed"
            }
          ]
        },
        "category": [
          {
            "coding": [
              {
                "system": "http://hl7.org/fhir/ValueSet/condition-category",
                "code": "encounter-diagnosis",
                "display": "Encounter Diagnosis"
              }
            ]
          }
        ],
        "code": {
          "coding": [
            {
              "system": "http://snomed.info/sct",
              "code": "840539006",
              "display": "COVID-19"
            }
          ]
        },
        "subject": {
          "reference": "Patient/23809",
          "display": "Denise Fuller Archer"
        },
        "encounter": {
          "reference": "Encounter/708692",
          "display": "infection [Encounter for Test [Encounter]]"
        },
        "onsetDateTime": "2020-04-05T01:25:00+00:00",
        "recordedDate": "2020-04-05T01:25:00+00:00",
        "asserter": {
          "reference": "Practitioner/19893",
          "identifier": {
            "system": "http://hl7.org/fhir/sid/us-npi",
            "value": "9999999339"
          },
          "display": "Julio Zachary Yates MD"
        }
      }
    },
    {
      "fullUrl": "https://gw.interop.community/Harrison4Saffron/data/Condition/355305",
      "resource": {
        "resourceType": "Condition",
        "id": "355305",
        "meta": {
          "versionId": "1",
          "lastUpdated": "2023-04-04T12:20:42+00:00",
          "source": "#UTdjx3q42Xla18cU"
        },
        "text": {
          "status": "generated",
          "div": "<div xmlns=\"http://www.w3.org/1999/xhtml\">This is a simple narrative with only plain text</div>"
        },
        "extension": [
          {
            "url": "http://mihin.org/extension/copyright",
            "valueString": "Copyright 2014-2022 Michigan Health Information Network Shared Services. Licensed under the Apache License, Version 2.0 (the 'License'); you may not use this file except in compliance with the License. You may obtain a copy of the License at  http://www.apache.org/licenses/LICENSE-2.0.  Unless required by applicable law or agreed to in writing, software distributed under the License is distributed on an 'AS IS' BASIS, WITHOUT WARRANTIES OR CONDITIONS OF ANY KIND, either express or implied. See the License for the specific language governing permissions and limitations under the License."
          }
        ],
        "identifier": [
          {
            "use": "official",
            "system": "http://mihin.org/fhir/sid/elementId",
            "value": "0a43c316-13ce-4d51-a69c-c7bad8dc00fb"
          }
        ],
        "clinicalStatus": {
          "coding": [
            {
              "system": "http://hl7.org/fhir/ValueSet/condition-clinical",
              "code": "active",
              "display": "Active"
            }
          ]
        },
        "verificationStatus": {
          "coding": [
            {
              "system": "http://hl7.org/fhir/ValueSet/condition-ver-status",
              "code": "confirmed",
              "display": "Confirmed"
            }
          ]
        },
        "category": [
          {
            "coding": [
              {
                "system": "http://hl7.org/fhir/ValueSet/condition-category",
                "code": "encounter-diagnosis",
                "display": "Encounter Diagnosis"
              }
            ]
          }
        ],
        "code": {
          "coding": [
            {
              "system": "http://snomed.info/sct",
              "code": "33839006",
              "display": "Genital herpes simplex (disorder)"
            },
            {
              "system": "http://hl7.org/fhir/sid/icd-10",
              "code": "A60.9",
              "display": "Genital herpes simplex (disorder)"
            }
          ]
        },
        "subject": {
          "reference": "Patient/23809",
          "display": "Denise Fuller Archer"
        },
        "encounter": {
          "reference": "Encounter/355299",
          "display": "Genital  Herpes [Ambulatory_Encounter [Encounter]]"
        },
        "onsetDateTime": "2018-08-13T10:00:00+00:00",
        "recordedDate": "2018-08-13T10:00:00+00:00",
        "asserter": {
          "reference": "Practitioner/21115",
          "identifier": {
            "system": "http://hl7.org/fhir/sid/us-npi",
            "value": "9999999885"
          },
          "display": "Doris Jamie Guzman MD"
        }
      }
    },
    {
      "fullUrl": "https://gw.interop.community/Harrison4Saffron/data/Condition/708694",
      "resource": {
        "resourceType": "Condition",
        "id": "708694",
        "meta": {
          "versionId": "1",
          "lastUpdated": "2023-04-04T23:44:32+00:00",
          "source": "#HL4A2r9eLLti3i5q"
        },
        "text": {
          "status": "generated",
          "div": "<div xmlns=\"http://www.w3.org/1999/xhtml\">This is a simple narrative with only plain text</div>"
        },
        "extension": [
          {
            "url": "http://mihin.org/extension/copyright",
            "valueString": "Copyright 2014-2022 Michigan Health Information Network Shared Services. Licensed under the Apache License, Version 2.0 (the 'License'); you may not use this file except in compliance with the License. You may obtain a copy of the License at  http://www.apache.org/licenses/LICENSE-2.0.  Unless required by applicable law or agreed to in writing, software distributed under the License is distributed on an 'AS IS' BASIS, WITHOUT WARRANTIES OR CONDITIONS OF ANY KIND, either express or implied. See the License for the specific language governing permissions and limitations under the License."
          }
        ],
        "identifier": [
          {
            "use": "official",
            "system": "http://mihin.org/fhir/sid/elementId",
            "value": "0d127361-00a7-4799-8ccb-9e8caf15bdf3"
          }
        ],
        "clinicalStatus": {
          "coding": [
            {
              "system": "http://hl7.org/fhir/ValueSet/condition-clinical",
              "code": "active",
              "display": "Active"
            }
          ]
        },
        "verificationStatus": {
          "coding": [
            {
              "system": "http://hl7.org/fhir/ValueSet/condition-ver-status",
              "code": "confirmed",
              "display": "Confirmed"
            }
          ]
        },
        "category": [
          {
            "coding": [
              {
                "system": "http://hl7.org/fhir/ValueSet/condition-category",
                "code": "encounter-diagnosis",
                "display": "Encounter Diagnosis"
              }
            ]
          }
        ],
        "code": {
          "coding": [
            {
              "system": "http://snomed.info/sct",
              "code": "49727002",
              "display": "Cough (finding)"
            }
          ]
        },
        "subject": {
          "reference": "Patient/23809",
          "display": "Denise Fuller Archer"
        },
        "encounter": {
          "reference": "Encounter/708692",
          "display": "infection [Encounter for Test [Encounter]]"
        },
        "onsetDateTime": "2020-04-05T00:00:00+00:00",
        "recordedDate": "2020-04-05T00:00:00+00:00",
        "asserter": {
          "reference": "Practitioner/19893",
          "identifier": {
            "system": "http://hl7.org/fhir/sid/us-npi",
            "value": "9999999339"
          },
          "display": "Julio Zachary Yates MD"
        }
      }
    },
    {
      "fullUrl": "https://gw.interop.community/Harrison4Saffron/data/MedicationRequest/601162",
      "resource": {
        "resourceType": "MedicationRequest",
        "id": "601162",
        "meta": {
          "versionId": "1",
          "lastUpdated": "2023-04-04T20:22:59+00:00",
          "source": "#3r8RgCHOy268IsK9"
        },
        "text": {
          "status": "generated",
          "div": "<div xmlns=\"http://www.w3.org/1999/xhtml\">This is a simple narrative with only plain text</div>"
        },
        "extension": [
          {
            "url": "http://mihin.org/extension/copyright",
            "valueString": "Copyright 2014-2022 Michigan Health Information Network Shared Services. Licensed under the Apache License, Version 2.0 (the 'License'); you may not use this file except in compliance with the License. You may obtain a copy of the License at  http://www.apache.org/licenses/LICENSE-2.0.  Unless required by applicable law or agreed to in writing, software distributed under the License is distributed on an 'AS IS' BASIS, WITHOUT WARRANTIES OR CONDITIONS OF ANY KIND, either express or implied. See the License for the specific language governing permissions and limitations under the License."
          },
          {
            "url": "http://build.fhir.org/ig/HL7/davinci-crd/R4/ext-insurance.html",
            "valueReference": {
              "reference": "Coverage/492473",
              "display": "Denise Fuller Archer Coverage"
            }
          }
        ],
        "identifier": [
          {
            "use": "official",
            "system": "http://mihin.org/fhir/sid/elementId",
            "value": "595aa5b8-eaeb-4b31-8f57-8922faec05fd"
          }
        ],
        "status": "active",
        "intent": "order",
        "medicationCodeableConcept": {
          "coding": [
            {
              "system": "http://www.nlm.nih.gov/research/umls/rxnorm",
              "code": "248656",
              "display": "Azithromycin 500 MG Oral Tablet"
            }
          ]
        },
        "subject": {
          "reference": "Patient/23809",
          "display": "Denise Fuller Archer"
        },
        "encounter": {
          "reference": "Encounter/601037",
          "display": "Genital  Herpes [Ambulatory_Encounter [Encounter]]"
        },
        "authoredOn": "2019-11-22T02:20:00+00:00",
        "requester": {
          "reference": "Practitioner/21115",
          "identifier": {
            "system": "http://hl7.org/fhir/sid/us-npi",
            "value": "9999999885"
          },
          "display": "Doris Jamie Guzman MD"
        },
        "reasonCode": [
          {
            "coding": [
              {
                "system": "http://snomed.info/sct",
                "code": "33839006",
                "display": "Genital herpes simplex (disorder)"
              }
            ]
          },
          {
            "coding": [
              {
                "system": "http://hl7.org/fhir/sid/icd-10",
                "code": "A60.9",
                "display": "Genital herpes simplex (disorder)"
              }
            ]
          }
        ],
        "insurance": [
          {
            "reference": "Coverage/492473",
            "display": "Denise Fuller Archer Coverage"
          }
        ]
      }
    },
    {
      "fullUrl": "https://gw.interop.community/Harrison4Saffron/data/Condition/134213",
      "resource": {
        "resourceType": "Condition",
        "id": "134213",
        "meta": {
          "versionId": "2",
          "lastUpdated": "2023-05-06T03:51:52+00:00",
          "source": "#TymNPoH3W22cgUw2"
        },
        "text": {
          "status": "generated",
          "div": "<div xmlns=\"http://www.w3.org/1999/xhtml\">This is a simple narrative with only plain text</div>"
        },
        "extension": [
          {
            "url": "http://mihin.org/extension/copyright",
            "valueString": "Copyright 2014-2022 Michigan Health Information Network Shared Services. Licensed under the Apache License, Version 2.0 (the 'License'); you may not use this file except in compliance with the License. You may obtain a copy of the License at  http://www.apache.org/licenses/LICENSE-2.0.  Unless required by applicable law or agreed to in writing, software distributed under the License is distributed on an 'AS IS' BASIS, WITHOUT WARRANTIES OR CONDITIONS OF ANY KIND, either express or implied. See the License for the specific language governing permissions and limitations under the License."
          }
        ],
        "identifier": [
          {
            "use": "official",
            "system": "http://mihin.org/fhir/sid/elementId",
            "value": "8a3ab28b-b243-4d11-8f04-e8654e228751"
          }
        ],
        "clinicalStatus": {
          "coding": [
            {
              "system": "http://terminology.hl7.org/CodeSystem/condition-clinical",
              "code": "active",
              "display": "Active"
            }
          ]
        },
        "verificationStatus": {
          "coding": [
            {
              "system": "http://terminology.hl7.org/CodeSystem/condition-ver-status",
              "code": "confirmed",
              "display": "Confirmed"
            }
          ]
        },
        "category": [
          {
            "coding": [
              {
                "system": "http://terminology.hl7.org/CodeSystem/condition-category",
                "code": "encounter-diagnosis",
                "display": "Encounter Diagnosis"
              }
            ]
          }
        ],
        "code": {
          "coding": [
            {
              "system": "http://snomed.info/sct",
              "code": "17305005",
              "display": "Acute gonorrhea of genitourinary tract (disorder)"
            },
            {
              "system": "http://hl7.org/fhir/sid/icd-10",
              "code": "A54.29",
              "display": "Acute gonorrhea of genitourinary tract (disorder)"
            }
          ]
        },
        "subject": {
          "reference": "Patient/23809",
          "display": "Denise Fuller Archer"
        },
        "encounter": {
          "reference": "Encounter/134211",
          "display": "Gonorrhea [Ambulatory_Encounter [Encounter]]"
        },
        "onsetDateTime": "2017-07-15T08:20:00+00:00",
        "recordedDate": "2017-07-15T08:20:00+00:00",
        "asserter": {
          "reference": "Practitioner/21115",
          "identifier": {
            "system": "http://terminology.hl7.org/CodeSystem/v2-0203",
            "value": "9999999885"
          },
          "display": "Doris Jamie Guzman MD"
        }
      }
    },
    {
      "fullUrl": "https://gw.interop.community/Harrison4Saffron/data/Condition/708695",
      "resource": {
        "resourceType": "Condition",
        "id": "708695",
        "meta": {
          "versionId": "1",
          "lastUpdated": "2023-04-04T23:44:32+00:00",
          "source": "#HL4A2r9eLLti3i5q"
        },
        "text": {
          "status": "generated",
          "div": "<div xmlns=\"http://www.w3.org/1999/xhtml\">This is a simple narrative with only plain text</div>"
        },
        "extension": [
          {
            "url": "http://mihin.org/extension/copyright",
            "valueString": "Copyright 2014-2022 Michigan Health Information Network Shared Services. Licensed under the Apache License, Version 2.0 (the 'License'); you may not use this file except in compliance with the License. You may obtain a copy of the License at  http://www.apache.org/licenses/LICENSE-2.0.  Unless required by applicable law or agreed to in writing, software distributed under the License is distributed on an 'AS IS' BASIS, WITHOUT WARRANTIES OR CONDITIONS OF ANY KIND, either express or implied. See the License for the specific language governing permissions and limitations under the License."
          }
        ],
        "identifier": [
          {
            "use": "official",
            "system": "http://mihin.org/fhir/sid/elementId",
            "value": "ebf59fd1-d484-47ec-9bfe-e69a44a62376"
          }
        ],
        "clinicalStatus": {
          "coding": [
            {
              "system": "http://hl7.org/fhir/ValueSet/condition-clinical",
              "code": "active",
              "display": "Active"
            }
          ]
        },
        "verificationStatus": {
          "coding": [
            {
              "system": "http://hl7.org/fhir/ValueSet/condition-ver-status",
              "code": "confirmed",
              "display": "Confirmed"
            }
          ]
        },
        "category": [
          {
            "coding": [
              {
                "system": "http://hl7.org/fhir/ValueSet/condition-category",
                "code": "encounter-diagnosis",
                "display": "Encounter Diagnosis"
              }
            ]
          }
        ],
        "code": {
          "coding": [
            {
              "system": "http://snomed.info/sct",
              "code": "248595008",
              "display": "Sputum finding (finding)"
            }
          ]
        },
        "subject": {
          "reference": "Patient/23809",
          "display": "Denise Fuller Archer"
        },
        "encounter": {
          "reference": "Encounter/708692",
          "display": "infection [Encounter for Test [Encounter]]"
        },
        "onsetDateTime": "2020-04-05T00:00:00+00:00",
        "recordedDate": "2020-04-05T00:00:00+00:00",
        "asserter": {
          "reference": "Practitioner/19893",
          "identifier": {
            "system": "http://hl7.org/fhir/sid/us-npi",
            "value": "9999999339"
          },
          "display": "Julio Zachary Yates MD"
        }
      }
    },
    {
      "fullUrl": "https://gw.interop.community/Harrison4Saffron/data/Practitioner/19941",
      "resource": {
        "resourceType": "Practitioner",
        "id": "19941",
        "meta": {
          "versionId": "2",
          "lastUpdated": "2023-05-06T04:33:31+00:00",
          "source": "#X18TvU49QslBjZ3c"
        },
        "text": {
          "status": "generated",
          "div": "<div xmlns=\"http://www.w3.org/1999/xhtml\">This is a simple narrative with only plain text</div>"
        },
        "extension": [
          {
            "url": "http://mihin.org/extension/copyright",
            "valueString": "Copyright 2014-2022 Michigan Health Information Network Shared Services. Licensed under the Apache License, Version 2.0 (the 'License'); you may not use this file except in compliance with the License. You may obtain a copy of the License at  http://www.apache.org/licenses/LICENSE-2.0.  Unless required by applicable law or agreed to in writing, software distributed under the License is distributed on an 'AS IS' BASIS, WITHOUT WARRANTIES OR CONDITIONS OF ANY KIND, either express or implied. See the License for the specific language governing permissions and limitations under the License."
          }
        ],
        "identifier": [
          {
            "use": "official",
            "type": {
              "coding": [
                {
                  "system": "http://terminology.hl7.org/CodeSystem/v2-0203",
                  "code": "SB",
                  "display": "Social Beneficiary Identifier"
                }
              ]
            },
            "system": "http://hl7.org/fhir/sid/us-ssn",
            "value": "000000341"
          },
          {
            "use": "official",
            "type": {
              "coding": [
                {
                  "system": "http://terminology.hl7.org/CodeSystem/v2-0203",
                  "code": "SB",
                  "display": "Social Beneficiary Identifier"
                }
              ]
            },
            "system": "http://mihin.org/fhir/cks",
            "value": "1575f920652346018c672e2f669885dc"
          },
          {
            "use": "official",
            "type": {
              "coding": [
                {
                  "system": "http://terminology.hl7.org/CodeSystem/v2-0203",
                  "code": "PRN",
                  "display": "Provider number"
                }
              ]
            },
            "system": "http://terminology.hl7.org/CodeSystem/v2-0203",
            "value": "9999999341"
          }
        ],
        "active": true,
        "name": [
          {
            "use": "official",
            "family": "Barker",
            "given": [
              "Lorraine",
              "Tara"
            ],
            "suffix": [
              "MD"
            ]
          }
        ],
        "telecom": [
          {
            "system": "phone",
            "value": "231-555-9730",
            "use": "home"
          },
          {
            "system": "phone",
            "value": "231-555-4585",
            "use": "mobile"
          }
        ],
        "address": [
          {
            "use": "work",
            "type": "postal",
            "line": [
              "155 W Rhine Street"
            ],
            "city": "Clinton Township",
            "district": "Harrison",
            "state": "Anywhere",
            "postalCode": "48038"
          }
        ],
        "gender": "female",
        "birthDate": "1977-05-07",
        "qualification": [
          {
            "identifier": [
              {
                "use": "official",
                "type": {
                  "coding": [
                    {
                      "system": "http://terminology.hl7.org/CodeSystem/v2-0203",
                      "code": "MD",
                      "display": "Medical License number"
                    }
                  ]
                },
                "system": "http://anywhere.gov/fhir/medical-license",
                "value": "LIC-341"
              }
            ],
            "code": {
              "coding": [
                {
                  "system": "http://terminology.hl7.org/CodeSystem/v2-0360",
                  "code": "MD",
                  "display": "Doctor of Medicine"
                }
              ]
            },
            "period": {
              "start": "2017-01-01T00:00:00+00:00",
              "end": "2022-12-31T00:00:00+00:00"
            },
            "issuer": {
              "reference": "Organization/17081",
              "display": "State Licensing Board"
            }
          }
        ]
      }
    },
    {
      "fullUrl": "https://gw.interop.community/Harrison4Saffron/data/Condition/1847248",
      "resource": {
        "resourceType": "Condition",
        "id": "1847248",
        "meta": {
          "versionId": "1",
          "lastUpdated": "2023-04-06T08:37:14+00:00",
          "source": "#aaVHDeATu2fMrMwr"
        },
        "text": {
          "status": "generated",
          "div": "<div xmlns=\"http://www.w3.org/1999/xhtml\">This is a simple narrative with only plain text</div>"
        },
        "extension": [
          {
            "url": "http://mihin.org/extension/copyright",
            "valueString": "Copyright 2014-2022 Michigan Health Information Network Shared Services. Licensed under the Apache License, Version 2.0 (the 'License'); you may not use this file except in compliance with the License. You may obtain a copy of the License at  http://www.apache.org/licenses/LICENSE-2.0.  Unless required by applicable law or agreed to in writing, software distributed under the License is distributed on an 'AS IS' BASIS, WITHOUT WARRANTIES OR CONDITIONS OF ANY KIND, either express or implied. See the License for the specific language governing permissions and limitations under the License."
          }
        ],
        "identifier": [
          {
            "use": "official",
            "system": "http://mihin.org/fhir/sid/elementId",
            "value": "b5e19349-b726-42bd-bf79-247549463c90"
          }
        ],
        "clinicalStatus": {
          "coding": [
            {
              "system": "http://hl7.org/fhir/ValueSet/condition-clinical",
              "code": "active",
              "display": "Active"
            }
          ]
        },
        "verificationStatus": {
          "coding": [
            {
              "system": "http://hl7.org/fhir/ValueSet/condition-ver-status",
              "code": "confirmed",
              "display": "Confirmed"
            }
          ]
        },
        "category": [
          {
            "coding": [
              {
                "system": "http://hl7.org/fhir/ValueSet/condition-category",
                "code": "encounter-diagnosis",
                "display": "Encounter Diagnosis"
              }
            ]
          }
        ],
        "code": {
          "coding": [
            {
              "system": "http://snomed.info/sct",
              "code": "33839006",
              "display": "Genital herpes simplex (disorder)"
            },
            {
              "system": "http://hl7.org/fhir/sid/icd-10",
              "code": "A60.9",
              "display": "Genital herpes simplex (disorder)"
            }
          ]
        },
        "subject": {
          "reference": "Patient/23809",
          "display": "Denise Fuller Archer"
        },
        "encounter": {
          "reference": "Encounter/1847246",
          "display": "Genital  Herpes [Ambulatory_Encounter [Encounter]]"
        },
        "onsetDateTime": "2020-11-27T14:20:00+00:00",
        "recordedDate": "2020-11-27T14:20:00+00:00",
        "asserter": {
          "reference": "Practitioner/21115",
          "identifier": {
            "system": "http://hl7.org/fhir/sid/us-npi",
            "value": "9999999885"
          },
          "display": "Doris Jamie Guzman MD"
        }
      }
    },
    {
      "fullUrl": "https://gw.interop.community/Harrison4Saffron/data/Condition/472660",
      "resource": {
        "resourceType": "Condition",
        "id": "472660",
        "meta": {
          "versionId": "1",
          "lastUpdated": "2023-04-04T16:19:37+00:00",
          "source": "#uKGhnguLtCx53FGU"
        },
        "text": {
          "status": "generated",
          "div": "<div xmlns=\"http://www.w3.org/1999/xhtml\">This is a simple narrative with only plain text</div>"
        },
        "extension": [
          {
            "url": "http://mihin.org/extension/copyright",
            "valueString": "Copyright 2014-2022 Michigan Health Information Network Shared Services. Licensed under the Apache License, Version 2.0 (the 'License'); you may not use this file except in compliance with the License. You may obtain a copy of the License at  http://www.apache.org/licenses/LICENSE-2.0.  Unless required by applicable law or agreed to in writing, software distributed under the License is distributed on an 'AS IS' BASIS, WITHOUT WARRANTIES OR CONDITIONS OF ANY KIND, either express or implied. See the License for the specific language governing permissions and limitations under the License."
          }
        ],
        "identifier": [
          {
            "use": "official",
            "system": "http://mihin.org/fhir/sid/elementId",
            "value": "a049df90-68fc-4cec-9a40-1ebe28ee4355"
          }
        ],
        "clinicalStatus": {
          "coding": [
            {
              "system": "http://hl7.org/fhir/ValueSet/condition-clinical",
              "code": "active",
              "display": "Active"
            }
          ]
        },
        "verificationStatus": {
          "coding": [
            {
              "system": "http://hl7.org/fhir/ValueSet/condition-ver-status",
              "code": "confirmed",
              "display": "Confirmed"
            }
          ]
        },
        "category": [
          {
            "coding": [
              {
                "system": "http://hl7.org/fhir/ValueSet/condition-category",
                "code": "encounter-diagnosis",
                "display": "Encounter Diagnosis"
              }
            ]
          }
        ],
        "code": {
          "coding": [
            {
              "system": "http://snomed.info/sct",
              "code": "161641009",
              "display": "At risk of diabetes mellitus (finding)"
            }
          ]
        },
        "subject": {
          "reference": "Patient/23809",
          "display": "Denise Fuller Archer"
        },
        "encounter": {
          "reference": "Encounter/472494",
          "display": "Wellness Encounter created 2017/04/02 00:00 for 2019/03/24"
        },
        "onsetDateTime": "2019-03-27T09:50:00+00:00",
        "recordedDate": "2019-03-27T09:50:00+00:00",
        "asserter": {
          "reference": "Practitioner/21115",
          "identifier": {
            "system": "http://hl7.org/fhir/sid/us-npi",
            "value": "9999999885"
          },
          "display": "Doris Jamie Guzman MD"
        }
      }
    },
    {
      "fullUrl": "https://gw.interop.community/Harrison4Saffron/data/Condition/1427314",
      "resource": {
        "resourceType": "Condition",
        "id": "1427314",
        "meta": {
          "versionId": "1",
          "lastUpdated": "2023-04-05T21:03:50+00:00",
          "source": "#r3lJ3hxAG2S5Dwao"
        },
        "text": {
          "status": "generated",
          "div": "<div xmlns=\"http://www.w3.org/1999/xhtml\">This is a simple narrative with only plain text</div>"
        },
        "extension": [
          {
            "url": "http://mihin.org/extension/copyright",
            "valueString": "Copyright 2014-2022 Michigan Health Information Network Shared Services. Licensed under the Apache License, Version 2.0 (the 'License'); you may not use this file except in compliance with the License. You may obtain a copy of the License at  http://www.apache.org/licenses/LICENSE-2.0.  Unless required by applicable law or agreed to in writing, software distributed under the License is distributed on an 'AS IS' BASIS, WITHOUT WARRANTIES OR CONDITIONS OF ANY KIND, either express or implied. See the License for the specific language governing permissions and limitations under the License."
          }
        ],
        "identifier": [
          {
            "use": "official",
            "system": "http://mihin.org/fhir/sid/elementId",
            "value": "3988c67b-3a54-46d3-b716-8fa3820f4a3a"
          }
        ],
        "clinicalStatus": {
          "coding": [
            {
              "system": "http://hl7.org/fhir/ValueSet/condition-clinical",
              "code": "active",
              "display": "Active"
            }
          ]
        },
        "verificationStatus": {
          "coding": [
            {
              "system": "http://hl7.org/fhir/ValueSet/condition-ver-status",
              "code": "confirmed",
              "display": "Confirmed"
            }
          ]
        },
        "category": [
          {
            "coding": [
              {
                "system": "http://hl7.org/fhir/ValueSet/condition-category",
                "code": "encounter-diagnosis",
                "display": "Encounter Diagnosis"
              }
            ]
          }
        ],
        "code": {
          "coding": [
            {
              "system": "http://snomed.info/sct",
              "code": "90974009",
              "display": "Salmonellosis (except human typhoid & paratyphoid) (disorder)"
            },
            {
              "system": "http://hl7.org/fhir/sid/icd-10",
              "code": "A02.0",
              "display": "Salmonellosis (except human typhoid & paratyphoid) (disorder)"
            }
          ]
        },
        "subject": {
          "reference": "Patient/23809",
          "display": "Denise Fuller Archer"
        },
        "encounter": {
          "reference": "Encounter/1427312",
          "display": "Salmonellosis [Doctor_Visit [Encounter]]"
        },
        "onsetDateTime": "2020-08-12T13:00:00+00:00",
        "recordedDate": "2020-08-12T13:00:00+00:00",
        "asserter": {
          "reference": "Practitioner/21115",
          "identifier": {
            "system": "http://hl7.org/fhir/sid/us-npi",
            "value": "9999999885"
          },
          "display": "Doris Jamie Guzman MD"
        }
      }
    },
    {
      "fullUrl": "https://gw.interop.community/Harrison4Saffron/data/Immunization/90486",
      "resource": {
        "resourceType": "Immunization",
        "id": "90486",
        "meta": {
          "versionId": "1",
          "lastUpdated": "2023-04-04T03:37:49+00:00",
          "source": "#Lt92ccy1uxxDDP9Z"
        },
        "text": {
          "status": "generated",
          "div": "<div xmlns=\"http://www.w3.org/1999/xhtml\">This is a simple narrative with only plain text</div>"
        },
        "extension": [
          {
            "url": "http://mihin.org/extension/copyright",
            "valueString": "Copyright 2014-2022 Michigan Health Information Network Shared Services. Licensed under the Apache License, Version 2.0 (the 'License'); you may not use this file except in compliance with the License. You may obtain a copy of the License at  http://www.apache.org/licenses/LICENSE-2.0.  Unless required by applicable law or agreed to in writing, software distributed under the License is distributed on an 'AS IS' BASIS, WITHOUT WARRANTIES OR CONDITIONS OF ANY KIND, either express or implied. See the License for the specific language governing permissions and limitations under the License."
          }
        ],
        "identifier": [
          {
            "use": "official",
            "system": "http://mihin.org/fhir/sid/elementId",
            "value": "8d864c69-7e4d-4a6f-994c-31488f49ce4d"
          }
        ],
        "status": "completed",
        "vaccineCode": {
          "coding": [
            {
              "system": "http://hl7.org/fhir/sid/cvx",
              "code": "113",
              "display": "Td (adult) preservative free"
            }
          ]
        },
        "patient": {
          "reference": "Patient/23809",
          "display": "Denise Fuller Archer"
        },
        "encounter": {
          "reference": "Encounter/90732",
          "display": "Wellness Encounter created 2017/01/08 00:00 for 2017/03/21"
        },
        "recorded": "2017-03-24T11:20:00+00:00",
        "primarySource": true,
        "location": {
          "reference": "Location/18930",
          "display": "Circle Clinical Services"
        },
        "performer": [
          {
            "actor": {
              "reference": "Practitioner/21115",
              "identifier": {
                "system": "http://hl7.org/fhir/sid/us-npi",
                "value": "9999999885"
              },
              "display": "Doris Jamie Guzman MD"
            }
          }
        ]
      }
    },
    {
      "fullUrl": "https://gw.interop.community/Harrison4Saffron/data/Condition/440654",
      "resource": {
        "resourceType": "Condition",
        "id": "440654",
        "meta": {
          "versionId": "1",
          "lastUpdated": "2023-04-04T15:18:50+00:00",
          "source": "#hoIQxMPgfw5UMWD9"
        },
        "text": {
          "status": "generated",
          "div": "<div xmlns=\"http://www.w3.org/1999/xhtml\">This is a simple narrative with only plain text</div>"
        },
        "extension": [
          {
            "url": "http://mihin.org/extension/copyright",
            "valueString": "Copyright 2014-2022 Michigan Health Information Network Shared Services. Licensed under the Apache License, Version 2.0 (the 'License'); you may not use this file except in compliance with the License. You may obtain a copy of the License at  http://www.apache.org/licenses/LICENSE-2.0.  Unless required by applicable law or agreed to in writing, software distributed under the License is distributed on an 'AS IS' BASIS, WITHOUT WARRANTIES OR CONDITIONS OF ANY KIND, either express or implied. See the License for the specific language governing permissions and limitations under the License."
          }
        ],
        "identifier": [
          {
            "use": "official",
            "system": "http://mihin.org/fhir/sid/elementId",
            "value": "a1e7c40f-63ea-445b-8729-33a72828de89"
          }
        ],
        "clinicalStatus": {
          "coding": [
            {
              "system": "http://hl7.org/fhir/ValueSet/condition-clinical",
              "code": "active",
              "display": "Active"
            }
          ]
        },
        "verificationStatus": {
          "coding": [
            {
              "system": "http://hl7.org/fhir/ValueSet/condition-ver-status",
              "code": "confirmed",
              "display": "Confirmed"
            }
          ]
        },
        "category": [
          {
            "coding": [
              {
                "system": "http://hl7.org/fhir/ValueSet/condition-category",
                "code": "encounter-diagnosis",
                "display": "Encounter Diagnosis"
              }
            ]
          }
        ],
        "code": {
          "coding": [
            {
              "system": "http://snomed.info/sct",
              "code": "33839006",
              "display": "Genital herpes simplex (disorder)"
            },
            {
              "system": "http://hl7.org/fhir/sid/icd-10",
              "code": "A60.9",
              "display": "Genital herpes simplex (disorder)"
            }
          ]
        },
        "subject": {
          "reference": "Patient/23809",
          "display": "Denise Fuller Archer"
        },
        "encounter": {
          "reference": "Encounter/440604",
          "display": "Genital  Herpes [Ambulatory_Encounter [Encounter]]"
        },
        "onsetDateTime": "2019-01-08T14:40:00+00:00",
        "recordedDate": "2019-01-08T14:40:00+00:00",
        "asserter": {
          "reference": "Practitioner/21115",
          "identifier": {
            "system": "http://hl7.org/fhir/sid/us-npi",
            "value": "9999999885"
          },
          "display": "Doris Jamie Guzman MD"
        }
      }
    },
    {
      "fullUrl": "https://gw.interop.community/Harrison4Saffron/data/Condition/1427315",
      "resource": {
        "resourceType": "Condition",
        "id": "1427315",
        "meta": {
          "versionId": "1",
          "lastUpdated": "2023-04-05T21:03:50+00:00",
          "source": "#r3lJ3hxAG2S5Dwao"
        },
        "text": {
          "status": "generated",
          "div": "<div xmlns=\"http://www.w3.org/1999/xhtml\">This is a simple narrative with only plain text</div>"
        },
        "extension": [
          {
            "url": "http://mihin.org/extension/copyright",
            "valueString": "Copyright 2014-2022 Michigan Health Information Network Shared Services. Licensed under the Apache License, Version 2.0 (the 'License'); you may not use this file except in compliance with the License. You may obtain a copy of the License at  http://www.apache.org/licenses/LICENSE-2.0.  Unless required by applicable law or agreed to in writing, software distributed under the License is distributed on an 'AS IS' BASIS, WITHOUT WARRANTIES OR CONDITIONS OF ANY KIND, either express or implied. See the License for the specific language governing permissions and limitations under the License."
          }
        ],
        "identifier": [
          {
            "use": "official",
            "system": "http://mihin.org/fhir/sid/elementId",
            "value": "b9357986-af91-4ccc-b507-1cffa444b657"
          }
        ],
        "clinicalStatus": {
          "coding": [
            {
              "system": "http://hl7.org/fhir/ValueSet/condition-clinical",
              "code": "active",
              "display": "Active"
            }
          ]
        },
        "verificationStatus": {
          "coding": [
            {
              "system": "http://hl7.org/fhir/ValueSet/condition-ver-status",
              "code": "confirmed",
              "display": "Confirmed"
            }
          ]
        },
        "category": [
          {
            "coding": [
              {
                "system": "http://hl7.org/fhir/ValueSet/condition-category",
                "code": "encounter-diagnosis",
                "display": "Encounter Diagnosis"
              }
            ]
          }
        ],
        "code": {
          "coding": [
            {
              "system": "http://snomed.info/sct",
              "code": "1611000119108",
              "display": "Mild dehydration (disorder)"
            }
          ]
        },
        "subject": {
          "reference": "Patient/23809",
          "display": "Denise Fuller Archer"
        },
        "encounter": {
          "reference": "Encounter/1427312",
          "display": "Salmonellosis [Doctor_Visit [Encounter]]"
        },
        "onsetDateTime": "2020-08-12T13:00:00+00:00",
        "recordedDate": "2020-08-12T13:00:00+00:00",
        "asserter": {
          "reference": "Practitioner/21115",
          "identifier": {
            "system": "http://hl7.org/fhir/sid/us-npi",
            "value": "9999999885"
          },
          "display": "Doris Jamie Guzman MD"
        }
      }
    },
    {
      "fullUrl": "https://gw.interop.community/Harrison4Saffron/data/Immunization/2492629",
      "resource": {
        "resourceType": "Immunization",
        "id": "2492629",
        "meta": {
          "versionId": "1",
          "lastUpdated": "2023-04-07T02:26:00+00:00",
          "source": "#uDX2lMwmh8ueGehr"
        },
        "text": {
          "status": "generated",
          "div": "<div xmlns=\"http://www.w3.org/1999/xhtml\">This is a simple narrative with only plain text</div>"
        },
        "extension": [
          {
            "url": "http://mihin.org/extension/copyright",
            "valueString": "Copyright 2014-2022 Michigan Health Information Network Shared Services. Licensed under the Apache License, Version 2.0 (the 'License'); you may not use this file except in compliance with the License. You may obtain a copy of the License at  http://www.apache.org/licenses/LICENSE-2.0.  Unless required by applicable law or agreed to in writing, software distributed under the License is distributed on an 'AS IS' BASIS, WITHOUT WARRANTIES OR CONDITIONS OF ANY KIND, either express or implied. See the License for the specific language governing permissions and limitations under the License."
          }
        ],
        "identifier": [
          {
            "use": "official",
            "system": "http://mihin.org/fhir/sid/elementId",
            "value": "385584cb-4b92-4a85-ac26-6d050a30bc02"
          }
        ],
        "status": "completed",
        "vaccineCode": {
          "coding": [
            {
              "system": "NDC",
              "code": "59267-1000-03",
              "display": "Pfizer-BioNTech Covid-19 Vaccine"
            }
          ]
        },
        "patient": {
          "reference": "Patient/23809",
          "display": "Denise Fuller Archer"
        },
        "encounter": {
          "reference": "Encounter/2492627",
          "display": "Covid-19 Immunizations [Vaccination_Encounter [Encounter]]"
        },
        "recorded": "2021-06-25T11:00:00+00:00",
        "primarySource": true,
        "location": {
          "reference": "Location/18930",
          "display": "Circle Clinical Services"
        },
        "performer": [
          {
            "actor": {
              "reference": "Practitioner/21115",
              "identifier": {
                "system": "http://hl7.org/fhir/sid/us-npi",
                "value": "9999999885"
              },
              "display": "Doris Jamie Guzman MD"
            }
          }
        ]
      }
    },
    {
      "fullUrl": "https://gw.interop.community/Harrison4Saffron/data/Encounter/640148",
      "resource": {
        "resourceType": "Encounter",
        "id": "640148",
        "meta": {
          "versionId": "2",
          "lastUpdated": "2023-05-02T18:42:05+00:00",
          "source": "#wmr2Q1mUhCnO8KbR"
        },
        "text": {
          "status": "generated",
          "div": "<div xmlns=\"http://www.w3.org/1999/xhtml\">This is a simple narrative with only plain text</div>"
        },
        "extension": [
          {
            "url": "http://mihin.org/extension/copyright",
            "valueString": "Copyright 2014-2022 Michigan Health Information Network Shared Services. Licensed under the Apache License, Version 2.0 (the 'License'); you may not use this file except in compliance with the License. You may obtain a copy of the License at  http://www.apache.org/licenses/LICENSE-2.0.  Unless required by applicable law or agreed to in writing, software distributed under the License is distributed on an 'AS IS' BASIS, WITHOUT WARRANTIES OR CONDITIONS OF ANY KIND, either express or implied. See the License for the specific language governing permissions and limitations under the License."
          }
        ],
        "identifier": [
          {
            "use": "official",
            "value": "281a87e9-9348-47a3-9265-acaeeae14fad"
          }
        ],
        "status": "finished",
        "class": {
          "system": "http://hl7.org/fhir/encounter-class",
          "code": "emergency",
          "display": "Emergency"
        },
        "type": [
          {
            "coding": [
              {
                "system": "http://snomed.info/sct",
                "code": "32485007",
                "display": "Hospital admission"
              }
            ]
          }
        ],
        "subject": {
          "reference": "Patient/23809",
          "display": "Denise Fuller Archer"
        },
        "participant": [
          {
            "type": [
              {
                "coding": [
                  {
                    "system": "http://hl7.org/fhir/v3/ParticipationType",
                    "code": "ATND",
                    "display": "attender"
                  }
                ]
              }
            ],
            "period": {
              "start": "2023-05-05T00:00:00+00:00",
              "end": "2023-05-05T00:00:00+00:00"
            },
            "individual": {
              "reference": "Practitioner/19941",
              "identifier": {
                "system": "http://hl7.org/fhir/sid/us-npi",
                "value": "9999999341"
              },
              "display": "Lorraine Tara Barker MD"
            }
          }
        ],
        "period": {
          "start": "2023-05-05T00:00:00+00:00",
          "end": "2023-05-05T00:00:00+00:00"
        },
        "reasonCode": [
          {
            "coding": [
              {
                "system": "http://snomed.info/sct",
                "code": "95417003",
                "display": "Influenza (Disorder)"
              }
            ]
          },
          {
            "coding": [
              {
                "system": "http://hl7.org/fhir/sid/icd-10",
                "code": "J10.1",
                "display": "Influenza (Disorder)"
              }
            ]
          }
        ],
        "hospitalization": {
          "dischargeDisposition": {
            "coding": [
              {
                "system": "http://hl7.org/fhir/discharge-disposition",
                "code": "home",
                "display": "Home"
              }
            ]
          }
        },
        "location": [
          {
            "location": {
              "reference": "Location/18874",
              "display": "VA Medical Center"
            }
          }
        ],
        "serviceProvider": {
          "reference": "Organization/17420",
          "display": "VA Medical Center"
        }
      }
    },
    {
      "fullUrl": "https://gw.interop.community/Harrison4Saffron/data/Condition/284444",
      "resource": {
        "resourceType": "Condition",
        "id": "284444",
        "meta": {
          "versionId": "1",
          "lastUpdated": "2023-04-04T10:04:15+00:00",
          "source": "#X8decIsRO1fLExjr"
        },
        "text": {
          "status": "generated",
          "div": "<div xmlns=\"http://www.w3.org/1999/xhtml\">This is a simple narrative with only plain text</div>"
        },
        "extension": [
          {
            "url": "http://mihin.org/extension/copyright",
            "valueString": "Copyright 2014-2022 Michigan Health Information Network Shared Services. Licensed under the Apache License, Version 2.0 (the 'License'); you may not use this file except in compliance with the License. You may obtain a copy of the License at  http://www.apache.org/licenses/LICENSE-2.0.  Unless required by applicable law or agreed to in writing, software distributed under the License is distributed on an 'AS IS' BASIS, WITHOUT WARRANTIES OR CONDITIONS OF ANY KIND, either express or implied. See the License for the specific language governing permissions and limitations under the License."
          }
        ],
        "identifier": [
          {
            "use": "official",
            "system": "http://mihin.org/fhir/sid/elementId",
            "value": "9beee6ae-b781-43b0-8f71-53b61cd525ba"
          }
        ],
        "clinicalStatus": {
          "coding": [
            {
              "system": "http://hl7.org/fhir/ValueSet/condition-clinical",
              "code": "active",
              "display": "Active"
            }
          ]
        },
        "verificationStatus": {
          "coding": [
            {
              "system": "http://hl7.org/fhir/ValueSet/condition-ver-status",
              "code": "confirmed",
              "display": "Confirmed"
            }
          ]
        },
        "category": [
          {
            "coding": [
              {
                "system": "http://hl7.org/fhir/ValueSet/condition-category",
                "code": "encounter-diagnosis",
                "display": "Encounter Diagnosis"
              }
            ]
          }
        ],
        "code": {
          "coding": [
            {
              "system": "http://snomed.info/sct",
              "code": "33839006",
              "display": "Genital herpes simplex (disorder)"
            },
            {
              "system": "http://hl7.org/fhir/sid/icd-10",
              "code": "A60.9",
              "display": "Genital herpes simplex (disorder)"
            }
          ]
        },
        "subject": {
          "reference": "Patient/23809",
          "display": "Denise Fuller Archer"
        },
        "encounter": {
          "reference": "Encounter/284442",
          "display": "Genital  Herpes [Ambulatory_Encounter [Encounter]]"
        },
        "onsetDateTime": "2018-04-04T14:20:00+00:00",
        "recordedDate": "2018-04-04T14:20:00+00:00",
        "asserter": {
          "reference": "Practitioner/21115",
          "identifier": {
            "system": "http://hl7.org/fhir/sid/us-npi",
            "value": "9999999885"
          },
          "display": "Doris Jamie Guzman MD"
        }
      }
    },
    {
      "fullUrl": "https://gw.interop.community/Harrison4Saffron/data/Condition/2071759",
      "resource": {
        "resourceType": "Condition",
        "id": "2071759",
        "meta": {
          "versionId": "1",
          "lastUpdated": "2023-04-06T14:55:23+00:00",
          "source": "#kFrttgyT8LuHTmSn"
        },
        "text": {
          "status": "generated",
          "div": "<div xmlns=\"http://www.w3.org/1999/xhtml\">This is a simple narrative with only plain text</div>"
        },
        "extension": [
          {
            "url": "http://mihin.org/extension/copyright",
            "valueString": "Copyright 2014-2022 Michigan Health Information Network Shared Services. Licensed under the Apache License, Version 2.0 (the 'License'); you may not use this file except in compliance with the License. You may obtain a copy of the License at  http://www.apache.org/licenses/LICENSE-2.0.  Unless required by applicable law or agreed to in writing, software distributed under the License is distributed on an 'AS IS' BASIS, WITHOUT WARRANTIES OR CONDITIONS OF ANY KIND, either express or implied. See the License for the specific language governing permissions and limitations under the License."
          }
        ],
        "identifier": [
          {
            "use": "official",
            "system": "http://mihin.org/fhir/sid/elementId",
            "value": "cd3f77b1-dcd2-463d-b7ee-2206946f165c"
          }
        ],
        "clinicalStatus": {
          "coding": [
            {
              "system": "http://hl7.org/fhir/ValueSet/condition-clinical",
              "code": "active",
              "display": "Active"
            }
          ]
        },
        "verificationStatus": {
          "coding": [
            {
              "system": "http://hl7.org/fhir/ValueSet/condition-ver-status",
              "code": "confirmed",
              "display": "Confirmed"
            }
          ]
        },
        "category": [
          {
            "coding": [
              {
                "system": "http://hl7.org/fhir/ValueSet/condition-category",
                "code": "encounter-diagnosis",
                "display": "Encounter Diagnosis"
              }
            ]
          }
        ],
        "code": {
          "coding": [
            {
              "system": "http://snomed.info/sct",
              "code": "72892002",
              "display": "Normal pregnancy"
            },
            {
              "system": "http://hl7.org/fhir/sid/icd-10",
              "code": "Z34.90",
              "display": "Normal pregnancy"
            }
          ]
        },
        "subject": {
          "reference": "Patient/23809",
          "display": "Denise Fuller Archer"
        },
        "encounter": {
          "reference": "Encounter/2071712",
          "display": "Pregnancy [Prenatal_Initial_Visit [Encounter]]"
        },
        "onsetDateTime": "2020-12-21T15:00:00+00:00",
        "recordedDate": "2020-12-21T15:00:00+00:00",
        "asserter": {
          "reference": "Practitioner/20237",
          "identifier": {
            "system": "http://hl7.org/fhir/sid/us-npi",
            "value": "9999999447"
          },
          "display": "Jon Gordon Howe MD"
        }
      }
    },
    {
      "fullUrl": "https://gw.interop.community/Harrison4Saffron/data/MedicationRequest/45040",
      "resource": {
        "resourceType": "MedicationRequest",
        "id": "45040",
        "meta": {
          "versionId": "1",
          "lastUpdated": "2023-04-04T02:10:10+00:00",
          "source": "#3aTsR8XY6UHoisLD"
        },
        "text": {
          "status": "generated",
          "div": "<div xmlns=\"http://www.w3.org/1999/xhtml\">This is a simple narrative with only plain text</div>"
        },
        "extension": [
          {
            "url": "http://mihin.org/extension/copyright",
            "valueString": "Copyright 2014-2022 Michigan Health Information Network Shared Services. Licensed under the Apache License, Version 2.0 (the 'License'); you may not use this file except in compliance with the License. You may obtain a copy of the License at  http://www.apache.org/licenses/LICENSE-2.0.  Unless required by applicable law or agreed to in writing, software distributed under the License is distributed on an 'AS IS' BASIS, WITHOUT WARRANTIES OR CONDITIONS OF ANY KIND, either express or implied. See the License for the specific language governing permissions and limitations under the License."
          },
          {
            "url": "http://build.fhir.org/ig/HL7/davinci-crd/R4/ext-insurance.html",
            "valueReference": {
              "reference": "Coverage/28754",
              "display": "Denise Fuller Archer Coverage"
            }
          }
        ],
        "identifier": [
          {
            "use": "official",
            "system": "http://mihin.org/fhir/sid/elementId",
            "value": "6c01e339-4f76-4bb4-acf1-d171e8cddf2c"
          }
        ],
        "status": "active",
        "intent": "order",
        "medicationCodeableConcept": {
          "coding": [
            {
              "system": "http://www.nlm.nih.gov/research/umls/rxnorm",
              "code": "757594",
              "display": "Jolivette 28 Day Pack"
            }
          ]
        },
        "subject": {
          "reference": "Patient/23809",
          "display": "Denise Fuller Archer"
        },
        "encounter": {
          "reference": "Encounter/45037",
          "display": "Oral Contraceptive [Encounter_For_Oral_Contraceptive [Encounter]]"
        },
        "authoredOn": "2017-01-17T09:00:00+00:00",
        "requester": {
          "reference": "Practitioner/21115",
          "identifier": {
            "system": "http://hl7.org/fhir/sid/us-npi",
            "value": "9999999885"
          },
          "display": "Doris Jamie Guzman MD"
        },
        "insurance": [
          {
            "reference": "Coverage/28754",
            "display": "Denise Fuller Archer Coverage"
          }
        ]
      }
    },
    {
      "fullUrl": "https://gw.interop.community/Harrison4Saffron/data/Immunization/472445",
      "resource": {
        "resourceType": "Immunization",
        "id": "472445",
        "meta": {
          "versionId": "1",
          "lastUpdated": "2023-04-04T16:19:37+00:00",
          "source": "#uKGhnguLtCx53FGU"
        },
        "text": {
          "status": "generated",
          "div": "<div xmlns=\"http://www.w3.org/1999/xhtml\">This is a simple narrative with only plain text</div>"
        },
        "extension": [
          {
            "url": "http://mihin.org/extension/copyright",
            "valueString": "Copyright 2014-2022 Michigan Health Information Network Shared Services. Licensed under the Apache License, Version 2.0 (the 'License'); you may not use this file except in compliance with the License. You may obtain a copy of the License at  http://www.apache.org/licenses/LICENSE-2.0.  Unless required by applicable law or agreed to in writing, software distributed under the License is distributed on an 'AS IS' BASIS, WITHOUT WARRANTIES OR CONDITIONS OF ANY KIND, either express or implied. See the License for the specific language governing permissions and limitations under the License."
          }
        ],
        "identifier": [
          {
            "use": "official",
            "system": "http://mihin.org/fhir/sid/elementId",
            "value": "f5720ecd-c7a4-4c4f-bcf4-1016a3ec6b5a"
          }
        ],
        "status": "completed",
        "vaccineCode": {
          "coding": [
            {
              "system": "http://hl7.org/fhir/sid/cvx",
              "code": "140",
              "display": "Influenza, seasonal, injectable, preservative free"
            }
          ]
        },
        "patient": {
          "reference": "Patient/23809",
          "display": "Denise Fuller Archer"
        },
        "encounter": {
          "reference": "Encounter/472494",
          "display": "Wellness Encounter created 2017/04/02 00:00 for 2019/03/24"
        },
        "recorded": "2019-03-27T09:20:00+00:00",
        "primarySource": true,
        "location": {
          "reference": "Location/18930",
          "display": "Circle Clinical Services"
        },
        "performer": [
          {
            "actor": {
              "reference": "Practitioner/21115",
              "identifier": {
                "system": "http://hl7.org/fhir/sid/us-npi",
                "value": "9999999885"
              },
              "display": "Doris Jamie Guzman MD"
            }
          }
        ]
      }
    },
    {
      "fullUrl": "https://gw.interop.community/Harrison4Saffron/data/Condition/1626592",
      "resource": {
        "resourceType": "Condition",
        "id": "1626592",
        "meta": {
          "versionId": "1",
          "lastUpdated": "2023-04-06T02:35:24+00:00",
          "source": "#rTd05EyBedoXpfc5"
        },
        "text": {
          "status": "generated",
          "div": "<div xmlns=\"http://www.w3.org/1999/xhtml\">This is a simple narrative with only plain text</div>"
        },
        "extension": [
          {
            "url": "http://mihin.org/extension/copyright",
            "valueString": "Copyright 2014-2022 Michigan Health Information Network Shared Services. Licensed under the Apache License, Version 2.0 (the 'License'); you may not use this file except in compliance with the License. You may obtain a copy of the License at  http://www.apache.org/licenses/LICENSE-2.0.  Unless required by applicable law or agreed to in writing, software distributed under the License is distributed on an 'AS IS' BASIS, WITHOUT WARRANTIES OR CONDITIONS OF ANY KIND, either express or implied. See the License for the specific language governing permissions and limitations under the License."
          }
        ],
        "identifier": [
          {
            "use": "official",
            "system": "http://mihin.org/fhir/sid/elementId",
            "value": "45210fd8-587c-47d4-a8b8-a36ff99989f6"
          }
        ],
        "clinicalStatus": {
          "coding": [
            {
              "system": "http://hl7.org/fhir/ValueSet/condition-clinical",
              "code": "active",
              "display": "Active"
            }
          ]
        },
        "verificationStatus": {
          "coding": [
            {
              "system": "http://hl7.org/fhir/ValueSet/condition-ver-status",
              "code": "confirmed",
              "display": "Confirmed"
            }
          ]
        },
        "category": [
          {
            "coding": [
              {
                "system": "http://hl7.org/fhir/ValueSet/condition-category",
                "code": "encounter-diagnosis",
                "display": "Encounter Diagnosis"
              }
            ]
          }
        ],
        "code": {
          "coding": [
            {
              "system": "http://snomed.info/sct",
              "code": "72892002",
              "display": "Normal pregnancy"
            },
            {
              "system": "http://hl7.org/fhir/sid/icd-10",
              "code": "Z34.90",
              "display": "Normal pregnancy"
            }
          ]
        },
        "subject": {
          "reference": "Patient/23809",
          "display": "Denise Fuller Archer"
        },
        "encounter": {
          "reference": "Encounter/1626590",
          "display": "Pregnancy [Prenatal_Initial_Visit [Encounter]]"
        },
        "onsetDateTime": "2020-08-17T10:00:00+00:00",
        "recordedDate": "2020-08-17T10:00:00+00:00",
        "asserter": {
          "reference": "Practitioner/20237",
          "identifier": {
            "system": "http://hl7.org/fhir/sid/us-npi",
            "value": "9999999447"
          },
          "display": "Jon Gordon Howe MD"
        }
      }
    },
    {
      "fullUrl": "https://gw.interop.community/Harrison4Saffron/data/MedicationRequest/134219",
      "resource": {
        "resourceType": "MedicationRequest",
        "id": "134219",
        "meta": {
          "versionId": "1",
          "lastUpdated": "2023-04-04T05:25:03+00:00",
          "source": "#b9M1X6iUTqLfQPXD"
        },
        "text": {
          "status": "generated",
          "div": "<div xmlns=\"http://www.w3.org/1999/xhtml\">This is a simple narrative with only plain text</div>"
        },
        "extension": [
          {
            "url": "http://mihin.org/extension/copyright",
            "valueString": "Copyright 2014-2022 Michigan Health Information Network Shared Services. Licensed under the Apache License, Version 2.0 (the 'License'); you may not use this file except in compliance with the License. You may obtain a copy of the License at  http://www.apache.org/licenses/LICENSE-2.0.  Unless required by applicable law or agreed to in writing, software distributed under the License is distributed on an 'AS IS' BASIS, WITHOUT WARRANTIES OR CONDITIONS OF ANY KIND, either express or implied. See the License for the specific language governing permissions and limitations under the License."
          },
          {
            "url": "http://build.fhir.org/ig/HL7/davinci-crd/R4/ext-insurance.html",
            "valueReference": {
              "reference": "Coverage/101314",
              "display": "Denise Fuller Archer Coverage"
            }
          }
        ],
        "identifier": [
          {
            "use": "official",
            "system": "http://mihin.org/fhir/sid/elementId",
            "value": "d75d172a-c1e1-42b8-9d79-b6c467e1ca25"
          }
        ],
        "status": "active",
        "intent": "order",
        "medicationCodeableConcept": {
          "coding": [
            {
              "system": "http://www.nlm.nih.gov/research/umls/rxnorm",
              "code": "248656",
              "display": "Azithromycin 500 MG Oral Tablet"
            }
          ]
        },
        "subject": {
          "reference": "Patient/23809",
          "display": "Denise Fuller Archer"
        },
        "encounter": {
          "reference": "Encounter/134211",
          "display": "Gonorrhea [Ambulatory_Encounter [Encounter]]"
        },
        "authoredOn": "2017-08-12T08:20:00+00:00",
        "requester": {
          "reference": "Practitioner/21115",
          "identifier": {
            "system": "http://hl7.org/fhir/sid/us-npi",
            "value": "9999999885"
          },
          "display": "Doris Jamie Guzman MD"
        },
        "reasonCode": [
          {
            "coding": [
              {
                "system": "http://snomed.info/sct",
                "code": "17305005",
                "display": "Acute gonorrhea of genitourinary tract (disorder)"
              }
            ]
          },
          {
            "coding": [
              {
                "system": "http://hl7.org/fhir/sid/icd-10",
                "code": "A54.29",
                "display": "Acute gonorrhea of genitourinary tract (disorder)"
              }
            ]
          }
        ],
        "insurance": [
          {
            "reference": "Coverage/101314",
            "display": "Denise Fuller Archer Coverage"
          }
        ],
        "dosageInstruction": [
          {
            "sequence": 1,
            "timing": {
              "repeat": {
                "frequency": 2,
                "period": 1,
                "periodUnit": "d"
              }
            },
            "asNeededBoolean": false,
            "doseAndRate": [
              {
                "doseQuantity": {
                  "value": 1
                }
              }
            ]
          }
        ],
        "dispenseRequest": {
          "validityPeriod": {
            "start": "2017-08-12T08:20:00+00:00",
            "end": "2017-08-12T08:20:00+00:00"
          }
        }
      }
    },
    {
      "fullUrl": "https://gw.interop.community/Harrison4Saffron/data/Condition/335246",
      "resource": {
        "resourceType": "Condition",
        "id": "335246",
        "meta": {
          "versionId": "1",
          "lastUpdated": "2023-04-04T11:41:47+00:00",
          "source": "#NATgHqXyvX1Oqy7B"
        },
        "text": {
          "status": "generated",
          "div": "<div xmlns=\"http://www.w3.org/1999/xhtml\">This is a simple narrative with only plain text</div>"
        },
        "extension": [
          {
            "url": "http://mihin.org/extension/copyright",
            "valueString": "Copyright 2014-2022 Michigan Health Information Network Shared Services. Licensed under the Apache License, Version 2.0 (the 'License'); you may not use this file except in compliance with the License. You may obtain a copy of the License at  http://www.apache.org/licenses/LICENSE-2.0.  Unless required by applicable law or agreed to in writing, software distributed under the License is distributed on an 'AS IS' BASIS, WITHOUT WARRANTIES OR CONDITIONS OF ANY KIND, either express or implied. See the License for the specific language governing permissions and limitations under the License."
          }
        ],
        "identifier": [
          {
            "use": "official",
            "system": "http://mihin.org/fhir/sid/elementId",
            "value": "dbe1b582-4fc5-429b-8161-1dbf8dfd9575"
          }
        ],
        "clinicalStatus": {
          "coding": [
            {
              "system": "http://hl7.org/fhir/ValueSet/condition-clinical",
              "code": "active",
              "display": "Active"
            }
          ]
        },
        "verificationStatus": {
          "coding": [
            {
              "system": "http://hl7.org/fhir/ValueSet/condition-ver-status",
              "code": "confirmed",
              "display": "Confirmed"
            }
          ]
        },
        "category": [
          {
            "coding": [
              {
                "system": "http://hl7.org/fhir/ValueSet/condition-category",
                "code": "encounter-diagnosis",
                "display": "Encounter Diagnosis"
              }
            ]
          }
        ],
        "code": {
          "coding": [
            {
              "system": "http://snomed.info/sct",
              "code": "444814009",
              "display": "Viral sinusitis (disorder)"
            },
            {
              "system": "http://hl7.org/fhir/sid/icd-10",
              "code": "J01.90",
              "display": "Viral sinusitis (disorder)"
            }
          ]
        },
        "subject": {
          "reference": "Patient/23809",
          "display": "Denise Fuller Archer"
        },
        "encounter": {
          "reference": "Encounter/334979",
          "display": "Sinusitis [Doctor_Visit [Encounter]]"
        },
        "onsetDateTime": "2018-07-13T13:00:00+00:00",
        "recordedDate": "2018-07-13T13:00:00+00:00",
        "asserter": {
          "reference": "Practitioner/20095",
          "identifier": {
            "system": "http://hl7.org/fhir/sid/us-npi",
            "value": "9999999456"
          },
          "display": "Reginald Stein Lin MD"
        }
      }
    },
    {
      "fullUrl": "https://gw.interop.community/Harrison4Saffron/data/MedicationRequest/134220",
      "resource": {
        "resourceType": "MedicationRequest",
        "id": "134220",
        "meta": {
          "versionId": "1",
          "lastUpdated": "2023-04-04T05:25:03+00:00",
          "source": "#b9M1X6iUTqLfQPXD"
        },
        "text": {
          "status": "generated",
          "div": "<div xmlns=\"http://www.w3.org/1999/xhtml\">This is a simple narrative with only plain text</div>"
        },
        "extension": [
          {
            "url": "http://mihin.org/extension/copyright",
            "valueString": "Copyright 2014-2022 Michigan Health Information Network Shared Services. Licensed under the Apache License, Version 2.0 (the 'License'); you may not use this file except in compliance with the License. You may obtain a copy of the License at  http://www.apache.org/licenses/LICENSE-2.0.  Unless required by applicable law or agreed to in writing, software distributed under the License is distributed on an 'AS IS' BASIS, WITHOUT WARRANTIES OR CONDITIONS OF ANY KIND, either express or implied. See the License for the specific language governing permissions and limitations under the License."
          },
          {
            "url": "http://build.fhir.org/ig/HL7/davinci-crd/R4/ext-insurance.html",
            "valueReference": {
              "reference": "Coverage/101314",
              "display": "Denise Fuller Archer Coverage"
            }
          }
        ],
        "identifier": [
          {
            "use": "official",
            "system": "http://mihin.org/fhir/sid/elementId",
            "value": "f4064b0c-6895-4ae0-9384-e65a722d39e5"
          }
        ],
        "status": "active",
        "intent": "order",
        "medicationCodeableConcept": {
          "coding": [
            {
              "system": "http://www.nlm.nih.gov/research/umls/rxnorm",
              "code": "24111-7",
              "display": "cefTRIAXone 250 MG Injection"
            }
          ]
        },
        "subject": {
          "reference": "Patient/23809",
          "display": "Denise Fuller Archer"
        },
        "encounter": {
          "reference": "Encounter/134211",
          "display": "Gonorrhea [Ambulatory_Encounter [Encounter]]"
        },
        "authoredOn": "2017-08-12T08:20:00+00:00",
        "requester": {
          "reference": "Practitioner/21115",
          "identifier": {
            "system": "http://hl7.org/fhir/sid/us-npi",
            "value": "9999999885"
          },
          "display": "Doris Jamie Guzman MD"
        },
        "reasonCode": [
          {
            "coding": [
              {
                "system": "http://snomed.info/sct",
                "code": "17305005",
                "display": "Acute gonorrhea of genitourinary tract (disorder)"
              }
            ]
          },
          {
            "coding": [
              {
                "system": "http://hl7.org/fhir/sid/icd-10",
                "code": "A54.29",
                "display": "Acute gonorrhea of genitourinary tract (disorder)"
              }
            ]
          }
        ],
        "insurance": [
          {
            "reference": "Coverage/101314",
            "display": "Denise Fuller Archer Coverage"
          }
        ]
      }
    },
    {
      "fullUrl": "https://gw.interop.community/Harrison4Saffron/data/Immunization/90485",
      "resource": {
        "resourceType": "Immunization",
        "id": "90485",
        "meta": {
          "versionId": "1",
          "lastUpdated": "2023-04-04T03:37:49+00:00",
          "source": "#Lt92ccy1uxxDDP9Z"
        },
        "text": {
          "status": "generated",
          "div": "<div xmlns=\"http://www.w3.org/1999/xhtml\">This is a simple narrative with only plain text</div>"
        },
        "extension": [
          {
            "url": "http://mihin.org/extension/copyright",
            "valueString": "Copyright 2014-2022 Michigan Health Information Network Shared Services. Licensed under the Apache License, Version 2.0 (the 'License'); you may not use this file except in compliance with the License. You may obtain a copy of the License at  http://www.apache.org/licenses/LICENSE-2.0.  Unless required by applicable law or agreed to in writing, software distributed under the License is distributed on an 'AS IS' BASIS, WITHOUT WARRANTIES OR CONDITIONS OF ANY KIND, either express or implied. See the License for the specific language governing permissions and limitations under the License."
          }
        ],
        "identifier": [
          {
            "use": "official",
            "system": "http://mihin.org/fhir/sid/elementId",
            "value": "ae82d08f-73c6-4519-b8fb-f9aa275ceeb2"
          }
        ],
        "status": "completed",
        "vaccineCode": {
          "coding": [
            {
              "system": "http://hl7.org/fhir/sid/cvx",
              "code": "140",
              "display": "Influenza, seasonal, injectable, preservative free"
            }
          ]
        },
        "patient": {
          "reference": "Patient/23809",
          "display": "Denise Fuller Archer"
        },
        "encounter": {
          "reference": "Encounter/90732",
          "display": "Wellness Encounter created 2017/01/08 00:00 for 2017/03/21"
        },
        "recorded": "2017-03-24T11:20:00+00:00",
        "primarySource": true,
        "location": {
          "reference": "Location/18930",
          "display": "Circle Clinical Services"
        },
        "performer": [
          {
            "actor": {
              "reference": "Practitioner/21115",
              "identifier": {
                "system": "http://hl7.org/fhir/sid/us-npi",
                "value": "9999999885"
              },
              "display": "Doris Jamie Guzman MD"
            }
          }
        ]
      }
    },
    {
      "fullUrl": "https://gw.interop.community/Harrison4Saffron/data/Condition/1427416",
      "resource": {
        "resourceType": "Condition",
        "id": "1427416",
        "meta": {
          "versionId": "1",
          "lastUpdated": "2023-04-05T21:03:48+00:00",
          "source": "#OSfnPNR5LogcQwG6"
        },
        "text": {
          "status": "generated",
          "div": "<div xmlns=\"http://www.w3.org/1999/xhtml\">This is a simple narrative with only plain text</div>"
        },
        "extension": [
          {
            "url": "http://mihin.org/extension/copyright",
            "valueString": "Copyright 2014-2022 Michigan Health Information Network Shared Services. Licensed under the Apache License, Version 2.0 (the 'License'); you may not use this file except in compliance with the License. You may obtain a copy of the License at  http://www.apache.org/licenses/LICENSE-2.0.  Unless required by applicable law or agreed to in writing, software distributed under the License is distributed on an 'AS IS' BASIS, WITHOUT WARRANTIES OR CONDITIONS OF ANY KIND, either express or implied. See the License for the specific language governing permissions and limitations under the License."
          }
        ],
        "identifier": [
          {
            "use": "official",
            "system": "http://mihin.org/fhir/sid/elementId",
            "value": "d2a66634-c142-463c-aa45-f25046cf68e0"
          }
        ],
        "clinicalStatus": {
          "coding": [
            {
              "system": "http://hl7.org/fhir/ValueSet/condition-clinical",
              "code": "active",
              "display": "Active"
            }
          ]
        },
        "verificationStatus": {
          "coding": [
            {
              "system": "http://hl7.org/fhir/ValueSet/condition-ver-status",
              "code": "confirmed",
              "display": "Confirmed"
            }
          ]
        },
        "category": [
          {
            "coding": [
              {
                "system": "http://hl7.org/fhir/ValueSet/condition-category",
                "code": "encounter-diagnosis",
                "display": "Encounter Diagnosis"
              }
            ]
          }
        ],
        "code": {
          "coding": [
            {
              "system": "http://snomed.info/sct",
              "code": "33839006",
              "display": "Genital herpes simplex (disorder)"
            },
            {
              "system": "http://hl7.org/fhir/sid/icd-10",
              "code": "A60.9",
              "display": "Genital herpes simplex (disorder)"
            }
          ]
        },
        "subject": {
          "reference": "Patient/23809",
          "display": "Denise Fuller Archer"
        },
        "encounter": {
          "reference": "Encounter/1427414",
          "display": "Genital  Herpes [Ambulatory_Encounter [Encounter]]"
        },
        "onsetDateTime": "2020-07-18T15:00:00+00:00",
        "recordedDate": "2020-07-18T15:00:00+00:00",
        "asserter": {
          "reference": "Practitioner/21115",
          "identifier": {
            "system": "http://hl7.org/fhir/sid/us-npi",
            "value": "9999999885"
          },
          "display": "Doris Jamie Guzman MD"
        }
      }
    },
    {
      "fullUrl": "https://gw.interop.community/Harrison4Saffron/data/MedicationRequest/529253",
      "resource": {
        "resourceType": "MedicationRequest",
        "id": "529253",
        "meta": {
          "versionId": "1",
          "lastUpdated": "2023-04-04T18:07:42+00:00",
          "source": "#ua9P5IfwPgOYaBWo"
        },
        "text": {
          "status": "generated",
          "div": "<div xmlns=\"http://www.w3.org/1999/xhtml\">This is a simple narrative with only plain text</div>"
        },
        "extension": [
          {
            "url": "http://mihin.org/extension/copyright",
            "valueString": "Copyright 2014-2022 Michigan Health Information Network Shared Services. Licensed under the Apache License, Version 2.0 (the 'License'); you may not use this file except in compliance with the License. You may obtain a copy of the License at  http://www.apache.org/licenses/LICENSE-2.0.  Unless required by applicable law or agreed to in writing, software distributed under the License is distributed on an 'AS IS' BASIS, WITHOUT WARRANTIES OR CONDITIONS OF ANY KIND, either express or implied. See the License for the specific language governing permissions and limitations under the License."
          },
          {
            "url": "http://build.fhir.org/ig/HL7/davinci-crd/R4/ext-insurance.html",
            "valueReference": {
              "reference": "Coverage/492473",
              "display": "Denise Fuller Archer Coverage"
            }
          }
        ],
        "identifier": [
          {
            "use": "official",
            "system": "http://mihin.org/fhir/sid/elementId",
            "value": "742182b6-39f5-416a-81b9-48ebb0d95513"
          }
        ],
        "status": "active",
        "intent": "order",
        "medicationCodeableConcept": {
          "coding": [
            {
              "system": "http://www.nlm.nih.gov/research/umls/rxnorm",
              "code": "248656",
              "display": "Azithromycin 500 MG Oral Tablet"
            }
          ]
        },
        "subject": {
          "reference": "Patient/23809",
          "display": "Denise Fuller Archer"
        },
        "encounter": {
          "reference": "Encounter/529146",
          "display": "Genital  Herpes [Ambulatory_Encounter [Encounter]]"
        },
        "authoredOn": "2019-07-15T17:20:00+00:00",
        "requester": {
          "reference": "Practitioner/21115",
          "identifier": {
            "system": "http://hl7.org/fhir/sid/us-npi",
            "value": "9999999885"
          },
          "display": "Doris Jamie Guzman MD"
        },
        "reasonCode": [
          {
            "coding": [
              {
                "system": "http://snomed.info/sct",
                "code": "33839006",
                "display": "Genital herpes simplex (disorder)"
              }
            ]
          },
          {
            "coding": [
              {
                "system": "http://hl7.org/fhir/sid/icd-10",
                "code": "A60.9",
                "display": "Genital herpes simplex (disorder)"
              }
            ]
          }
        ],
        "insurance": [
          {
            "reference": "Coverage/492473",
            "display": "Denise Fuller Archer Coverage"
          }
        ]
      }
    },
    {
      "fullUrl": "https://gw.interop.community/Harrison4Saffron/data/Condition/118489",
      "resource": {
        "resourceType": "Condition",
        "id": "118489",
        "meta": {
          "versionId": "2",
          "lastUpdated": "2023-05-06T03:40:52+00:00",
          "source": "#oXI5uEfRkuDIhf27"
        },
        "text": {
          "status": "generated",
          "div": "<div xmlns=\"http://www.w3.org/1999/xhtml\">This is a simple narrative with only plain text</div>"
        },
        "extension": [
          {
            "url": "http://mihin.org/extension/copyright",
            "valueString": "Copyright 2014-2022 Michigan Health Information Network Shared Services. Licensed under the Apache License, Version 2.0 (the 'License'); you may not use this file except in compliance with the License. You may obtain a copy of the License at  http://www.apache.org/licenses/LICENSE-2.0.  Unless required by applicable law or agreed to in writing, software distributed under the License is distributed on an 'AS IS' BASIS, WITHOUT WARRANTIES OR CONDITIONS OF ANY KIND, either express or implied. See the License for the specific language governing permissions and limitations under the License."
          }
        ],
        "identifier": [
          {
            "use": "official",
            "system": "http://mihin.org/fhir/sid/elementId",
            "value": "176c40fc-204f-4e5c-8ae7-ed082d6dd9ac"
          }
        ],
        "clinicalStatus": {
          "coding": [
            {
              "system": "http://terminology.hl7.org/CodeSystem/condition-clinical",
              "code": "active",
              "display": "Active"
            }
          ]
        },
        "verificationStatus": {
          "coding": [
            {
              "system": "http://terminology.hl7.org/CodeSystem/condition-ver-status",
              "code": "confirmed",
              "display": "Confirmed"
            }
          ]
        },
        "category": [
          {
            "coding": [
              {
                "system": "http://terminology.hl7.org/CodeSystem/condition-category",
                "code": "encounter-diagnosis",
                "display": "Encounter Diagnosis"
              }
            ]
          }
        ],
        "code": {
          "coding": [
            {
              "system": "http://snomed.info/sct",
              "code": "33839006",
              "display": "Genital herpes simplex (disorder)"
            },
            {
              "system": "http://hl7.org/fhir/sid/icd-10",
              "code": "A60.9",
              "display": "Genital herpes simplex (disorder)"
            }
          ]
        },
        "subject": {
          "reference": "Patient/23809",
          "display": "Denise Fuller Archer"
        },
        "encounter": {
          "reference": "Encounter/118487",
          "display": "Genital  Herpes [Ambulatory_Encounter [Encounter]]"
        },
        "onsetDateTime": "2017-06-10T15:20:00+00:00",
        "recordedDate": "2017-06-10T15:20:00+00:00",
        "asserter": {
          "reference": "Practitioner/21115",
          "identifier": {
            "system": "http://terminology.hl7.org/CodeSystem/v2-0203",
            "value": "9999999885"
          },
          "display": "Doris Jamie Guzman MD"
        }
      }
    },
    {
      "fullUrl": "https://gw.interop.community/Harrison4Saffron/data/MedicationRequest/1724979",
      "resource": {
        "resourceType": "MedicationRequest",
        "id": "1724979",
        "meta": {
          "versionId": "1",
          "lastUpdated": "2023-04-06T05:12:47+00:00",
          "source": "#lcY2GnMBaIQWINhX"
        },
        "text": {
          "status": "generated",
          "div": "<div xmlns=\"http://www.w3.org/1999/xhtml\">This is a simple narrative with only plain text</div>"
        },
        "extension": [
          {
            "url": "http://mihin.org/extension/copyright",
            "valueString": "Copyright 2014-2022 Michigan Health Information Network Shared Services. Licensed under the Apache License, Version 2.0 (the 'License'); you may not use this file except in compliance with the License. You may obtain a copy of the License at  http://www.apache.org/licenses/LICENSE-2.0.  Unless required by applicable law or agreed to in writing, software distributed under the License is distributed on an 'AS IS' BASIS, WITHOUT WARRANTIES OR CONDITIONS OF ANY KIND, either express or implied. See the License for the specific language governing permissions and limitations under the License."
          },
          {
            "url": "http://build.fhir.org/ig/HL7/davinci-crd/R4/ext-insurance.html",
            "valueReference": {
              "reference": "Coverage/1030910",
              "display": "Denise Fuller Archer Coverage"
            }
          }
        ],
        "identifier": [
          {
            "use": "official",
            "system": "http://mihin.org/fhir/sid/elementId",
            "value": "7beb3fb1-b0e1-4d6b-8a4e-4abb1706c73a"
          }
        ],
        "status": "active",
        "intent": "order",
        "medicationCodeableConcept": {
          "coding": [
            {
              "system": "http://www.nlm.nih.gov/research/umls/rxnorm",
              "code": "248656",
              "display": "Azithromycin 500 MG Oral Tablet"
            }
          ]
        },
        "subject": {
          "reference": "Patient/23809",
          "display": "Denise Fuller Archer"
        },
        "encounter": {
          "reference": "Encounter/1724971",
          "display": "Chlamydia [Ambulatory_Encounter [Encounter]]"
        },
        "authoredOn": "2020-11-10T09:40:00+00:00",
        "requester": {
          "reference": "Practitioner/21115",
          "identifier": {
            "system": "http://hl7.org/fhir/sid/us-npi",
            "value": "9999999885"
          },
          "display": "Doris Jamie Guzman MD"
        },
        "reasonCode": [
          {
            "coding": [
              {
                "system": "http://snomed.info/sct",
                "code": "312099009",
                "display": "Genitourinary chlamydia infection (disorder)"
              }
            ]
          },
          {
            "coding": [
              {
                "system": "http://hl7.org/fhir/sid/icd-10",
                "code": "A56.2",
                "display": "Genitourinary chlamydia infection (disorder)"
              }
            ]
          }
        ],
        "insurance": [
          {
            "reference": "Coverage/1030910",
            "display": "Denise Fuller Archer Coverage"
          }
        ],
        "dosageInstruction": [
          {
            "sequence": 1,
            "timing": {
              "repeat": {
                "frequency": 2,
                "period": 1,
                "periodUnit": "d"
              }
            },
            "asNeededBoolean": false,
            "doseAndRate": [
              {
                "doseQuantity": {
                  "value": 1
                }
              }
            ]
          }
        ],
        "dispenseRequest": {
          "validityPeriod": {
            "start": "2020-11-10T09:40:00+00:00",
            "end": "2020-11-10T09:40:00+00:00"
          }
        }
      }
    },
    {
      "fullUrl": "https://gw.interop.community/Harrison4Saffron/data/Condition/529148",
      "resource": {
        "resourceType": "Condition",
        "id": "529148",
        "meta": {
          "versionId": "1",
          "lastUpdated": "2023-04-04T18:07:42+00:00",
          "source": "#ua9P5IfwPgOYaBWo"
        },
        "text": {
          "status": "generated",
          "div": "<div xmlns=\"http://www.w3.org/1999/xhtml\">This is a simple narrative with only plain text</div>"
        },
        "extension": [
          {
            "url": "http://mihin.org/extension/copyright",
            "valueString": "Copyright 2014-2022 Michigan Health Information Network Shared Services. Licensed under the Apache License, Version 2.0 (the 'License'); you may not use this file except in compliance with the License. You may obtain a copy of the License at  http://www.apache.org/licenses/LICENSE-2.0.  Unless required by applicable law or agreed to in writing, software distributed under the License is distributed on an 'AS IS' BASIS, WITHOUT WARRANTIES OR CONDITIONS OF ANY KIND, either express or implied. See the License for the specific language governing permissions and limitations under the License."
          }
        ],
        "identifier": [
          {
            "use": "official",
            "system": "http://mihin.org/fhir/sid/elementId",
            "value": "2ccb1f40-e4c7-47ab-ae26-cd99071aa873"
          }
        ],
        "clinicalStatus": {
          "coding": [
            {
              "system": "http://hl7.org/fhir/ValueSet/condition-clinical",
              "code": "active",
              "display": "Active"
            }
          ]
        },
        "verificationStatus": {
          "coding": [
            {
              "system": "http://hl7.org/fhir/ValueSet/condition-ver-status",
              "code": "confirmed",
              "display": "Confirmed"
            }
          ]
        },
        "category": [
          {
            "coding": [
              {
                "system": "http://hl7.org/fhir/ValueSet/condition-category",
                "code": "encounter-diagnosis",
                "display": "Encounter Diagnosis"
              }
            ]
          }
        ],
        "code": {
          "coding": [
            {
              "system": "http://snomed.info/sct",
              "code": "33839006",
              "display": "Genital herpes simplex (disorder)"
            },
            {
              "system": "http://hl7.org/fhir/sid/icd-10",
              "code": "A60.9",
              "display": "Genital herpes simplex (disorder)"
            }
          ]
        },
        "subject": {
          "reference": "Patient/23809",
          "display": "Denise Fuller Archer"
        },
        "encounter": {
          "reference": "Encounter/529146",
          "display": "Genital  Herpes [Ambulatory_Encounter [Encounter]]"
        },
        "onsetDateTime": "2019-06-25T09:20:00+00:00",
        "recordedDate": "2019-06-25T09:20:00+00:00",
        "asserter": {
          "reference": "Practitioner/21115",
          "identifier": {
            "system": "http://hl7.org/fhir/sid/us-npi",
            "value": "9999999885"
          },
          "display": "Doris Jamie Guzman MD"
        }
      }
    },
    {
      "fullUrl": "https://gw.interop.community/Harrison4Saffron/data/MedicationRequest/2395107",
      "resource": {
        "resourceType": "MedicationRequest",
        "id": "2395107",
        "meta": {
          "versionId": "1",
          "lastUpdated": "2023-04-06T23:49:49+00:00",
          "source": "#yUEPQ261KcxVGCcE"
        },
        "text": {
          "status": "generated",
          "div": "<div xmlns=\"http://www.w3.org/1999/xhtml\">This is a simple narrative with only plain text</div>"
        },
        "extension": [
          {
            "url": "http://mihin.org/extension/copyright",
            "valueString": "Copyright 2014-2022 Michigan Health Information Network Shared Services. Licensed under the Apache License, Version 2.0 (the 'License'); you may not use this file except in compliance with the License. You may obtain a copy of the License at  http://www.apache.org/licenses/LICENSE-2.0.  Unless required by applicable law or agreed to in writing, software distributed under the License is distributed on an 'AS IS' BASIS, WITHOUT WARRANTIES OR CONDITIONS OF ANY KIND, either express or implied. See the License for the specific language governing permissions and limitations under the License."
          },
          {
            "url": "http://build.fhir.org/ig/HL7/davinci-crd/R4/ext-insurance.html",
            "valueReference": {
              "reference": "Coverage/2345603",
              "display": "Denise Fuller Archer Coverage"
            }
          }
        ],
        "identifier": [
          {
            "use": "official",
            "system": "http://mihin.org/fhir/sid/elementId",
            "value": "b7beb7f4-d383-4341-953a-c453382e675e"
          }
        ],
        "status": "active",
        "intent": "order",
        "medicationCodeableConcept": {
          "coding": [
            {
              "system": "http://www.nlm.nih.gov/research/umls/rxnorm",
              "code": "248656",
              "display": "Azithromycin 500 MG Oral Tablet"
            }
          ]
        },
        "subject": {
          "reference": "Patient/23809",
          "display": "Denise Fuller Archer"
        },
        "encounter": {
          "reference": "Encounter/2395100",
          "display": "Genital  Herpes [Ambulatory_Encounter [Encounter]]"
        },
        "authoredOn": "2021-05-22T19:20:00+00:00",
        "requester": {
          "reference": "Practitioner/21115",
          "identifier": {
            "system": "http://hl7.org/fhir/sid/us-npi",
            "value": "9999999885"
          },
          "display": "Doris Jamie Guzman MD"
        },
        "reasonCode": [
          {
            "coding": [
              {
                "system": "http://snomed.info/sct",
                "code": "33839006",
                "display": "Genital herpes simplex (disorder)"
              }
            ]
          },
          {
            "coding": [
              {
                "system": "http://hl7.org/fhir/sid/icd-10",
                "code": "A60.9",
                "display": "Genital herpes simplex (disorder)"
              }
            ]
          }
        ],
        "insurance": [
          {
            "reference": "Coverage/2345603",
            "display": "Denise Fuller Archer Coverage"
          }
        ]
      }
    },
    {
      "fullUrl": "https://gw.interop.community/Harrison4Saffron/data/Immunization/2221534",
      "resource": {
        "resourceType": "Immunization",
        "id": "2221534",
        "meta": {
          "versionId": "1",
          "lastUpdated": "2023-04-06T19:04:36+00:00",
          "source": "#dGUNzXZM5Wlo0kIA"
        },
        "text": {
          "status": "generated",
          "div": "<div xmlns=\"http://www.w3.org/1999/xhtml\">This is a simple narrative with only plain text</div>"
        },
        "extension": [
          {
            "url": "http://mihin.org/extension/copyright",
            "valueString": "Copyright 2014-2022 Michigan Health Information Network Shared Services. Licensed under the Apache License, Version 2.0 (the 'License'); you may not use this file except in compliance with the License. You may obtain a copy of the License at  http://www.apache.org/licenses/LICENSE-2.0.  Unless required by applicable law or agreed to in writing, software distributed under the License is distributed on an 'AS IS' BASIS, WITHOUT WARRANTIES OR CONDITIONS OF ANY KIND, either express or implied. See the License for the specific language governing permissions and limitations under the License."
          }
        ],
        "identifier": [
          {
            "use": "official",
            "system": "http://mihin.org/fhir/sid/elementId",
            "value": "d488958e-7af6-4cdf-a9e3-c28632c9e807"
          }
        ],
        "status": "completed",
        "vaccineCode": {
          "coding": [
            {
              "system": "http://hl7.org/fhir/sid/cvx",
              "code": "140",
              "display": "Influenza, seasonal, injectable, preservative free"
            }
          ]
        },
        "patient": {
          "reference": "Patient/23809",
          "display": "Denise Fuller Archer"
        },
        "encounter": {
          "reference": "Encounter/2221532",
          "display": "Wellness Encounter created 2019/04/07 00:00 for 2021/03/26"
        },
        "recorded": "2021-03-23T11:00:00+00:00",
        "primarySource": true,
        "location": {
          "reference": "Location/18930",
          "display": "Circle Clinical Services"
        },
        "performer": [
          {
            "actor": {
              "reference": "Practitioner/21115",
              "identifier": {
                "system": "http://hl7.org/fhir/sid/us-npi",
                "value": "9999999885"
              },
              "display": "Doris Jamie Guzman MD"
            }
          }
        ]
      }
    },
    {
      "fullUrl": "https://gw.interop.community/Harrison4Saffron/data/MedicationRequest/284449",
      "resource": {
        "resourceType": "MedicationRequest",
        "id": "284449",
        "meta": {
          "versionId": "1",
          "lastUpdated": "2023-04-04T10:04:15+00:00",
          "source": "#X8decIsRO1fLExjr"
        },
        "text": {
          "status": "generated",
          "div": "<div xmlns=\"http://www.w3.org/1999/xhtml\">This is a simple narrative with only plain text</div>"
        },
        "extension": [
          {
            "url": "http://mihin.org/extension/copyright",
            "valueString": "Copyright 2014-2022 Michigan Health Information Network Shared Services. Licensed under the Apache License, Version 2.0 (the 'License'); you may not use this file except in compliance with the License. You may obtain a copy of the License at  http://www.apache.org/licenses/LICENSE-2.0.  Unless required by applicable law or agreed to in writing, software distributed under the License is distributed on an 'AS IS' BASIS, WITHOUT WARRANTIES OR CONDITIONS OF ANY KIND, either express or implied. See the License for the specific language governing permissions and limitations under the License."
          },
          {
            "url": "http://build.fhir.org/ig/HL7/davinci-crd/R4/ext-insurance.html",
            "valueReference": {
              "reference": "Coverage/101314",
              "display": "Denise Fuller Archer Coverage"
            }
          }
        ],
        "identifier": [
          {
            "use": "official",
            "system": "http://mihin.org/fhir/sid/elementId",
            "value": "9e580b49-0fa0-4363-8186-f89f2cf2c20b"
          }
        ],
        "status": "active",
        "intent": "order",
        "medicationCodeableConcept": {
          "coding": [
            {
              "system": "http://www.nlm.nih.gov/research/umls/rxnorm",
              "code": "248656",
              "display": "Azithromycin 500 MG Oral Tablet"
            }
          ]
        },
        "subject": {
          "reference": "Patient/23809",
          "display": "Denise Fuller Archer"
        },
        "encounter": {
          "reference": "Encounter/284442",
          "display": "Genital  Herpes [Ambulatory_Encounter [Encounter]]"
        },
        "authoredOn": "2018-05-05T22:20:00+00:00",
        "requester": {
          "reference": "Practitioner/21115",
          "identifier": {
            "system": "http://hl7.org/fhir/sid/us-npi",
            "value": "9999999885"
          },
          "display": "Doris Jamie Guzman MD"
        },
        "reasonCode": [
          {
            "coding": [
              {
                "system": "http://snomed.info/sct",
                "code": "33839006",
                "display": "Genital herpes simplex (disorder)"
              }
            ]
          },
          {
            "coding": [
              {
                "system": "http://hl7.org/fhir/sid/icd-10",
                "code": "A60.9",
                "display": "Genital herpes simplex (disorder)"
              }
            ]
          }
        ],
        "insurance": [
          {
            "reference": "Coverage/101314",
            "display": "Denise Fuller Archer Coverage"
          }
        ]
      }
    },
    {
      "fullUrl": "https://gw.interop.community/Harrison4Saffron/data/Condition/709055",
      "resource": {
        "resourceType": "Condition",
        "id": "709055",
        "meta": {
          "versionId": "1",
          "lastUpdated": "2023-04-04T23:44:32+00:00",
          "source": "#HL4A2r9eLLti3i5q"
        },
        "text": {
          "status": "generated",
          "div": "<div xmlns=\"http://www.w3.org/1999/xhtml\">This is a simple narrative with only plain text</div>"
        },
        "extension": [
          {
            "url": "http://mihin.org/extension/copyright",
            "valueString": "Copyright 2014-2022 Michigan Health Information Network Shared Services. Licensed under the Apache License, Version 2.0 (the 'License'); you may not use this file except in compliance with the License. You may obtain a copy of the License at  http://www.apache.org/licenses/LICENSE-2.0.  Unless required by applicable law or agreed to in writing, software distributed under the License is distributed on an 'AS IS' BASIS, WITHOUT WARRANTIES OR CONDITIONS OF ANY KIND, either express or implied. See the License for the specific language governing permissions and limitations under the License."
          }
        ],
        "identifier": [
          {
            "use": "official",
            "system": "http://mihin.org/fhir/sid/elementId",
            "value": "cee48193-e5a5-48d4-9972-675cf06fcceb"
          }
        ],
        "clinicalStatus": {
          "coding": [
            {
              "system": "http://hl7.org/fhir/ValueSet/condition-clinical",
              "code": "active",
              "display": "Active"
            }
          ]
        },
        "verificationStatus": {
          "coding": [
            {
              "system": "http://hl7.org/fhir/ValueSet/condition-ver-status",
              "code": "confirmed",
              "display": "Confirmed"
            }
          ]
        },
        "category": [
          {
            "coding": [
              {
                "system": "http://hl7.org/fhir/ValueSet/condition-category",
                "code": "encounter-diagnosis",
                "display": "Encounter Diagnosis"
              }
            ]
          }
        ],
        "code": {
          "coding": [
            {
              "system": "http://snomed.info/sct",
              "code": "840544004",
              "display": "Suspected COVID-19"
            }
          ]
        },
        "subject": {
          "reference": "Patient/23809",
          "display": "Denise Fuller Archer"
        },
        "encounter": {
          "reference": "Encounter/708692",
          "display": "infection [Encounter for Test [Encounter]]"
        },
        "onsetDateTime": "2020-04-05T00:00:00+00:00",
        "recordedDate": "2020-04-05T00:00:00+00:00",
        "asserter": {
          "reference": "Practitioner/19893",
          "identifier": {
            "system": "http://hl7.org/fhir/sid/us-npi",
            "value": "9999999339"
          },
          "display": "Julio Zachary Yates MD"
        }
      }
    },
    {
      "fullUrl": "https://gw.interop.community/Harrison4Saffron/data/MedicationRequest/1427421",
      "resource": {
        "resourceType": "MedicationRequest",
        "id": "1427421",
        "meta": {
          "versionId": "1",
          "lastUpdated": "2023-04-05T21:03:48+00:00",
          "source": "#OSfnPNR5LogcQwG6"
        },
        "text": {
          "status": "generated",
          "div": "<div xmlns=\"http://www.w3.org/1999/xhtml\">This is a simple narrative with only plain text</div>"
        },
        "extension": [
          {
            "url": "http://mihin.org/extension/copyright",
            "valueString": "Copyright 2014-2022 Michigan Health Information Network Shared Services. Licensed under the Apache License, Version 2.0 (the 'License'); you may not use this file except in compliance with the License. You may obtain a copy of the License at  http://www.apache.org/licenses/LICENSE-2.0.  Unless required by applicable law or agreed to in writing, software distributed under the License is distributed on an 'AS IS' BASIS, WITHOUT WARRANTIES OR CONDITIONS OF ANY KIND, either express or implied. See the License for the specific language governing permissions and limitations under the License."
          },
          {
            "url": "http://build.fhir.org/ig/HL7/davinci-crd/R4/ext-insurance.html",
            "valueReference": {
              "reference": "Coverage/1030910",
              "display": "Denise Fuller Archer Coverage"
            }
          }
        ],
        "identifier": [
          {
            "use": "official",
            "system": "http://mihin.org/fhir/sid/elementId",
            "value": "2b0eb969-2a33-460c-9282-ebf4715a4d39"
          }
        ],
        "status": "active",
        "intent": "order",
        "medicationCodeableConcept": {
          "coding": [
            {
              "system": "http://www.nlm.nih.gov/research/umls/rxnorm",
              "code": "248656",
              "display": "Azithromycin 500 MG Oral Tablet"
            }
          ]
        },
        "subject": {
          "reference": "Patient/23809",
          "display": "Denise Fuller Archer"
        },
        "encounter": {
          "reference": "Encounter/1427414",
          "display": "Genital  Herpes [Ambulatory_Encounter [Encounter]]"
        },
        "authoredOn": "2020-08-22T23:00:00+00:00",
        "requester": {
          "reference": "Practitioner/21115",
          "identifier": {
            "system": "http://hl7.org/fhir/sid/us-npi",
            "value": "9999999885"
          },
          "display": "Doris Jamie Guzman MD"
        },
        "reasonCode": [
          {
            "coding": [
              {
                "system": "http://snomed.info/sct",
                "code": "33839006",
                "display": "Genital herpes simplex (disorder)"
              }
            ]
          },
          {
            "coding": [
              {
                "system": "http://hl7.org/fhir/sid/icd-10",
                "code": "A60.9",
                "display": "Genital herpes simplex (disorder)"
              }
            ]
          }
        ],
        "insurance": [
          {
            "reference": "Coverage/1030910",
            "display": "Denise Fuller Archer Coverage"
          }
        ]
      }
    },
    {
      "fullUrl": "https://gw.interop.community/Harrison4Saffron/data/Condition/2395102",
      "resource": {
        "resourceType": "Condition",
        "id": "2395102",
        "meta": {
          "versionId": "1",
          "lastUpdated": "2023-04-06T23:49:49+00:00",
          "source": "#yUEPQ261KcxVGCcE"
        },
        "text": {
          "status": "generated",
          "div": "<div xmlns=\"http://www.w3.org/1999/xhtml\">This is a simple narrative with only plain text</div>"
        },
        "extension": [
          {
            "url": "http://mihin.org/extension/copyright",
            "valueString": "Copyright 2014-2022 Michigan Health Information Network Shared Services. Licensed under the Apache License, Version 2.0 (the 'License'); you may not use this file except in compliance with the License. You may obtain a copy of the License at  http://www.apache.org/licenses/LICENSE-2.0.  Unless required by applicable law or agreed to in writing, software distributed under the License is distributed on an 'AS IS' BASIS, WITHOUT WARRANTIES OR CONDITIONS OF ANY KIND, either express or implied. See the License for the specific language governing permissions and limitations under the License."
          }
        ],
        "identifier": [
          {
            "use": "official",
            "system": "http://mihin.org/fhir/sid/elementId",
            "value": "23f76601-e79b-44f0-ab94-f614cb2592f0"
          }
        ],
        "clinicalStatus": {
          "coding": [
            {
              "system": "http://hl7.org/fhir/ValueSet/condition-clinical",
              "code": "active",
              "display": "Active"
            }
          ]
        },
        "verificationStatus": {
          "coding": [
            {
              "system": "http://hl7.org/fhir/ValueSet/condition-ver-status",
              "code": "confirmed",
              "display": "Confirmed"
            }
          ]
        },
        "category": [
          {
            "coding": [
              {
                "system": "http://hl7.org/fhir/ValueSet/condition-category",
                "code": "encounter-diagnosis",
                "display": "Encounter Diagnosis"
              }
            ]
          }
        ],
        "code": {
          "coding": [
            {
              "system": "http://snomed.info/sct",
              "code": "33839006",
              "display": "Genital herpes simplex (disorder)"
            },
            {
              "system": "http://hl7.org/fhir/sid/icd-10",
              "code": "A60.9",
              "display": "Genital herpes simplex (disorder)"
            }
          ]
        },
        "subject": {
          "reference": "Patient/23809",
          "display": "Denise Fuller Archer"
        },
        "encounter": {
          "reference": "Encounter/2395100",
          "display": "Genital  Herpes [Ambulatory_Encounter [Encounter]]"
        },
        "onsetDateTime": "2021-05-03T11:20:00+00:00",
        "recordedDate": "2021-05-03T11:20:00+00:00",
        "asserter": {
          "reference": "Practitioner/21115",
          "identifier": {
            "system": "http://hl7.org/fhir/sid/us-npi",
            "value": "9999999885"
          },
          "display": "Doris Jamie Guzman MD"
        }
      }
    },
    {
      "fullUrl": "https://gw.interop.community/Harrison4Saffron/data/MedicationRequest/440659",
      "resource": {
        "resourceType": "MedicationRequest",
        "id": "440659",
        "meta": {
          "versionId": "1",
          "lastUpdated": "2023-04-04T15:18:50+00:00",
          "source": "#hoIQxMPgfw5UMWD9"
        },
        "text": {
          "status": "generated",
          "div": "<div xmlns=\"http://www.w3.org/1999/xhtml\">This is a simple narrative with only plain text</div>"
        },
        "extension": [
          {
            "url": "http://mihin.org/extension/copyright",
            "valueString": "Copyright 2014-2022 Michigan Health Information Network Shared Services. Licensed under the Apache License, Version 2.0 (the 'License'); you may not use this file except in compliance with the License. You may obtain a copy of the License at  http://www.apache.org/licenses/LICENSE-2.0.  Unless required by applicable law or agreed to in writing, software distributed under the License is distributed on an 'AS IS' BASIS, WITHOUT WARRANTIES OR CONDITIONS OF ANY KIND, either express or implied. See the License for the specific language governing permissions and limitations under the License."
          },
          {
            "url": "http://build.fhir.org/ig/HL7/davinci-crd/R4/ext-insurance.html",
            "valueReference": {
              "reference": "Coverage/284246",
              "display": "Denise Fuller Archer Coverage"
            }
          }
        ],
        "identifier": [
          {
            "use": "official",
            "system": "http://mihin.org/fhir/sid/elementId",
            "value": "9b4d5ab3-0fc9-4cc0-931a-7cc07690dd7c"
          }
        ],
        "status": "active",
        "intent": "order",
        "medicationCodeableConcept": {
          "coding": [
            {
              "system": "http://www.nlm.nih.gov/research/umls/rxnorm",
              "code": "248656",
              "display": "Azithromycin 500 MG Oral Tablet"
            }
          ]
        },
        "subject": {
          "reference": "Patient/23809",
          "display": "Denise Fuller Archer"
        },
        "encounter": {
          "reference": "Encounter/440604",
          "display": "Genital  Herpes [Ambulatory_Encounter [Encounter]]"
        },
        "authoredOn": "2019-02-11T22:40:00+00:00",
        "requester": {
          "reference": "Practitioner/21115",
          "identifier": {
            "system": "http://hl7.org/fhir/sid/us-npi",
            "value": "9999999885"
          },
          "display": "Doris Jamie Guzman MD"
        },
        "reasonCode": [
          {
            "coding": [
              {
                "system": "http://snomed.info/sct",
                "code": "33839006",
                "display": "Genital herpes simplex (disorder)"
              }
            ]
          },
          {
            "coding": [
              {
                "system": "http://hl7.org/fhir/sid/icd-10",
                "code": "A60.9",
                "display": "Genital herpes simplex (disorder)"
              }
            ]
          }
        ],
        "insurance": [
          {
            "reference": "Coverage/284246",
            "display": "Denise Fuller Archer Coverage"
          }
        ]
      }
    },
    {
      "fullUrl": "https://gw.interop.community/Harrison4Saffron/data/MedicationRequest/1847303",
      "resource": {
        "resourceType": "MedicationRequest",
        "id": "1847303",
        "meta": {
          "versionId": "1",
          "lastUpdated": "2023-04-06T08:37:14+00:00",
          "source": "#aaVHDeATu2fMrMwr"
        },
        "text": {
          "status": "generated",
          "div": "<div xmlns=\"http://www.w3.org/1999/xhtml\">This is a simple narrative with only plain text</div>"
        },
        "extension": [
          {
            "url": "http://mihin.org/extension/copyright",
            "valueString": "Copyright 2014-2022 Michigan Health Information Network Shared Services. Licensed under the Apache License, Version 2.0 (the 'License'); you may not use this file except in compliance with the License. You may obtain a copy of the License at  http://www.apache.org/licenses/LICENSE-2.0.  Unless required by applicable law or agreed to in writing, software distributed under the License is distributed on an 'AS IS' BASIS, WITHOUT WARRANTIES OR CONDITIONS OF ANY KIND, either express or implied. See the License for the specific language governing permissions and limitations under the License."
          },
          {
            "url": "http://build.fhir.org/ig/HL7/davinci-crd/R4/ext-insurance.html",
            "valueReference": {
              "reference": "Coverage/1030910",
              "display": "Denise Fuller Archer Coverage"
            }
          }
        ],
        "identifier": [
          {
            "use": "official",
            "system": "http://mihin.org/fhir/sid/elementId",
            "value": "b6b46903-b912-4d3b-8181-5ba0f938212e"
          }
        ],
        "status": "active",
        "intent": "order",
        "medicationCodeableConcept": {
          "coding": [
            {
              "system": "http://www.nlm.nih.gov/research/umls/rxnorm",
              "code": "248656",
              "display": "Azithromycin 500 MG Oral Tablet"
            }
          ]
        },
        "subject": {
          "reference": "Patient/23809",
          "display": "Denise Fuller Archer"
        },
        "encounter": {
          "reference": "Encounter/1847246",
          "display": "Genital  Herpes [Ambulatory_Encounter [Encounter]]"
        },
        "authoredOn": "2020-12-19T08:20:00+00:00",
        "requester": {
          "reference": "Practitioner/21115",
          "identifier": {
            "system": "http://hl7.org/fhir/sid/us-npi",
            "value": "9999999885"
          },
          "display": "Doris Jamie Guzman MD"
        },
        "reasonCode": [
          {
            "coding": [
              {
                "system": "http://snomed.info/sct",
                "code": "33839006",
                "display": "Genital herpes simplex (disorder)"
              }
            ]
          },
          {
            "coding": [
              {
                "system": "http://hl7.org/fhir/sid/icd-10",
                "code": "A60.9",
                "display": "Genital herpes simplex (disorder)"
              }
            ]
          }
        ],
        "insurance": [
          {
            "reference": "Coverage/1030910",
            "display": "Denise Fuller Archer Coverage"
          }
        ]
      }
    },
    {
      "fullUrl": "https://gw.interop.community/Harrison4Saffron/data/MedicationRequest/45102",
      "resource": {
        "resourceType": "MedicationRequest",
        "id": "45102",
        "meta": {
          "versionId": "1",
          "lastUpdated": "2023-04-04T02:10:11+00:00",
          "source": "#ZsN6UZxRFaIjGZhi"
        },
        "text": {
          "status": "generated",
          "div": "<div xmlns=\"http://www.w3.org/1999/xhtml\">This is a simple narrative with only plain text</div>"
        },
        "extension": [
          {
            "url": "http://mihin.org/extension/copyright",
            "valueString": "Copyright 2014-2022 Michigan Health Information Network Shared Services. Licensed under the Apache License, Version 2.0 (the 'License'); you may not use this file except in compliance with the License. You may obtain a copy of the License at  http://www.apache.org/licenses/LICENSE-2.0.  Unless required by applicable law or agreed to in writing, software distributed under the License is distributed on an 'AS IS' BASIS, WITHOUT WARRANTIES OR CONDITIONS OF ANY KIND, either express or implied. See the License for the specific language governing permissions and limitations under the License."
          },
          {
            "url": "http://build.fhir.org/ig/HL7/davinci-crd/R4/ext-insurance.html",
            "valueReference": {
              "reference": "Coverage/28754",
              "display": "Denise Fuller Archer Coverage"
            }
          }
        ],
        "identifier": [
          {
            "use": "official",
            "system": "http://mihin.org/fhir/sid/elementId",
            "value": "06ad552d-6bea-478f-b122-093601cd98db"
          }
        ],
        "status": "active",
        "intent": "order",
        "medicationCodeableConcept": {
          "coding": [
            {
              "system": "http://www.nlm.nih.gov/research/umls/rxnorm",
              "code": "198014",
              "display": "Naproxen 500 MG Oral Tablet"
            }
          ]
        },
        "subject": {
          "reference": "Patient/23809",
          "display": "Denise Fuller Archer"
        },
        "encounter": {
          "reference": "Encounter/44944",
          "display": "Fibromyalgia [Fibromyalgia_Diagnosis [Encounter]]"
        },
        "authoredOn": "2017-01-18T15:00:00+00:00",
        "requester": {
          "reference": "Practitioner/20096",
          "identifier": {
            "system": "http://hl7.org/fhir/sid/us-npi",
            "value": "9999999460"
          },
          "display": "Larry Mario Parks MD"
        },
        "reasonCode": [
          {
            "coding": [
              {
                "system": "http://snomed.info/sct",
                "code": "95417003",
                "display": "Primary fibromyalgia syndrome"
              }
            ]
          },
          {
            "coding": [
              {
                "system": "http://hl7.org/fhir/sid/icd-10",
                "code": "M79.7",
                "display": "Primary fibromyalgia syndrome"
              }
            ]
          }
        ],
        "insurance": [
          {
            "reference": "Coverage/28754",
            "display": "Denise Fuller Archer Coverage"
          }
        ]
      }
    },
    {
      "fullUrl": "https://gw.interop.community/Harrison4Saffron/data/Organization/17420",
      "resource": {
        "resourceType": "Organization",
        "id": "17420",
        "meta": {
          "versionId": "4",
          "lastUpdated": "2023-05-05T16:28:53+00:00",
          "source": "#FLglSJC1nTatQMzg"
        },
        "text": {
          "status": "generated",
          "div": "<div xmlns=\"http://www.w3.org/1999/xhtml\">This is a simple narrative with only plain text</div>"
        },
        "extension": [
          {
            "url": "http://mihin.org/extension/copyright",
            "valueString": "Copyright 2014-2022 Michigan Health Information Network Shared Services. Licensed under the Apache License, Version 2.0 (the 'License'); you may not use this file except in compliance with the License. You may obtain a copy of the License at  http://www.apache.org/licenses/LICENSE-2.0.  Unless required by applicable law or agreed to in writing, software distributed under the License is distributed on an 'AS IS' BASIS, WITHOUT WARRANTIES OR CONDITIONS OF ANY KIND, either express or implied. See the License for the specific language governing permissions and limitations under the License."
          }
        ],
        "identifier": [
          {
            "use": "official",
            "system": "http://www.hl7.org/oid/",
            "value": "1.2.3.4.5.9.99.999.9999.1271"
          },
          {
            "use": "official",
            "type": {
              "coding": [
                {
                  "system": "http://terminology.hl7.org/CodeSystem/v2-0203",
                  "code": "PRN",
                  "display": "Provider number"
                }
              ]
            },
            "system": "http://terminology.hl7.org/CodeSystem/v2-0203",
            "value": "8999991271"
          },
          {
            "use": "official",
            "type": {
              "coding": [
                {
                  "system": "http://terminology.hl7.org/CodeSystem/v2-0203",
                  "code": "TAX",
                  "display": "Tax ID number"
                }
              ]
            },
            "system": "http://terminology.hl7.org/CodeSystem/v2-0203",
            "value": "000001271"
          }
        ],
        "active": true,
        "name": "VA Medical Center",
        "telecom": [
          {
            "system": "phone",
            "value": "586-555-6974",
            "use": "work"
          }
        ],
        "address": [
          {
            "line": [
              "93 N Colorado Street"
            ],
            "city": "Clinton Township",
            "district": "Harrison",
            "state": "Anywhere",
            "postalCode": "48035"
          }
        ],
        "endpoint": [
          {
            "reference": "Endpoint/17702",
            "display": "VA Medical Center"
          }
        ]
      }
    },
    {
      "fullUrl": "https://gw.interop.community/Harrison4Saffron/data/Immunization/472446",
      "resource": {
        "resourceType": "Immunization",
        "id": "472446",
        "meta": {
          "versionId": "1",
          "lastUpdated": "2023-04-04T16:19:37+00:00",
          "source": "#uKGhnguLtCx53FGU"
        },
        "text": {
          "status": "generated",
          "div": "<div xmlns=\"http://www.w3.org/1999/xhtml\">This is a simple narrative with only plain text</div>"
        },
        "extension": [
          {
            "url": "http://mihin.org/extension/copyright",
            "valueString": "Copyright 2014-2022 Michigan Health Information Network Shared Services. Licensed under the Apache License, Version 2.0 (the 'License'); you may not use this file except in compliance with the License. You may obtain a copy of the License at  http://www.apache.org/licenses/LICENSE-2.0.  Unless required by applicable law or agreed to in writing, software distributed under the License is distributed on an 'AS IS' BASIS, WITHOUT WARRANTIES OR CONDITIONS OF ANY KIND, either express or implied. See the License for the specific language governing permissions and limitations under the License."
          }
        ],
        "identifier": [
          {
            "use": "official",
            "system": "http://mihin.org/fhir/sid/elementId",
            "value": "c0960a1d-1ceb-48d7-be17-1ad64c976ac5"
          }
        ],
        "status": "completed",
        "vaccineCode": {
          "coding": [
            {
              "system": "http://hl7.org/fhir/sid/cvx",
              "code": "113",
              "display": "Td (adult) preservative free"
            }
          ]
        },
        "patient": {
          "reference": "Patient/23809",
          "display": "Denise Fuller Archer"
        },
        "encounter": {
          "reference": "Encounter/472494",
          "display": "Wellness Encounter created 2017/04/02 00:00 for 2019/03/24"
        },
        "recorded": "2019-03-27T09:20:00+00:00",
        "primarySource": true,
        "location": {
          "reference": "Location/18930",
          "display": "Circle Clinical Services"
        },
        "performer": [
          {
            "actor": {
              "reference": "Practitioner/21115",
              "identifier": {
                "system": "http://hl7.org/fhir/sid/us-npi",
                "value": "9999999885"
              },
              "display": "Doris Jamie Guzman MD"
            }
          }
        ]
      }
    },
    {
      "fullUrl": "https://gw.interop.community/Harrison4Saffron/data/Condition/44946",
      "resource": {
        "resourceType": "Condition",
        "id": "44946",
        "meta": {
          "versionId": "4",
          "lastUpdated": "2023-05-06T03:05:05+00:00",
          "source": "#DgME3cl8VnSRKEWe"
        },
        "text": {
          "status": "generated",
          "div": "<div xmlns=\"http://www.w3.org/1999/xhtml\">This is a simple narrative with only plain text</div>"
        },
        "extension": [
          {
            "url": "http://mihin.org/extension/copyright",
            "valueString": "Copyright 2014-2022 Michigan Health Information Network Shared Services. Licensed under the Apache License, Version 2.0 (the 'License'); you may not use this file except in compliance with the License. You may obtain a copy of the License at  http://www.apache.org/licenses/LICENSE-2.0.  Unless required by applicable law or agreed to in writing, software distributed under the License is distributed on an 'AS IS' BASIS, WITHOUT WARRANTIES OR CONDITIONS OF ANY KIND, either express or implied. See the License for the specific language governing permissions and limitations under the License."
          }
        ],
        "identifier": [
          {
            "use": "official",
            "system": "http://mihin.org/fhir/sid/elementId",
            "value": "f2c812b1-e402-4362-9b98-21fa68af5421"
          }
        ],
        "clinicalStatus": {
          "coding": [
            {
              "system": "http://terminology.hl7.org/CodeSystem/condition-clinical",
              "code": "active",
              "display": "Active"
            }
          ]
        },
        "verificationStatus": {
          "coding": [
            {
              "system": "http://terminology.hl7.org/CodeSystem/condition-ver-status",
              "code": "confirmed",
              "display": "Confirmed"
            }
          ]
        },
        "category": [
          {
            "coding": [
              {
                "system": "http://terminology.hl7.org/CodeSystem/condition-category",
                "code": "encounter-diagnosis",
                "display": "Encounter Diagnosis"
              }
            ]
          }
        ],
        "code": {
          "coding": [
            {
              "system": "http://snomed.info/sct",
              "code": "95417003",
              "display": "Influenza (Disorder)"
            },
            {
              "system": "http://hl7.org/fhir/sid/icd-10",
              "code": "J10.1",
              "display": "Influenza (Disorder)"
            }
          ]
        },
        "subject": {
          "reference": "Patient/23809",
          "display": "Denise Fuller Archer"
        },
        "encounter": {
          "reference": "Encounter/44944",
          "display": "Influenza (Disorder) [Doctor_Visit [Encounter]]"
        },
        "onsetDateTime": "2023-05-04T00:00:00+00:00",
        "recordedDate": "2023-05-04T00:00:00+00:00",
        "asserter": {
          "reference": "Practitioner/20096",
          "identifier": {
            "system": "http://terminology.hl7.org/CodeSystem/v2-0203",
            "value": "9999999460"
          },
          "display": "Larry Mario Parks MD"
        }
      }
    },
    {
      "fullUrl": "https://gw.interop.community/Harrison4Saffron/data/MedicationRequest/640151",
      "resource": {
        "resourceType": "MedicationRequest",
        "id": "640151",
        "meta": {
          "versionId": "1",
          "lastUpdated": "2023-04-04T21:36:34+00:00",
          "source": "#zfmtxemygDrn4r0P"
        },
        "text": {
          "status": "generated",
          "div": "<div xmlns=\"http://www.w3.org/1999/xhtml\">This is a simple narrative with only plain text</div>"
        },
        "extension": [
          {
            "url": "http://mihin.org/extension/copyright",
            "valueString": "Copyright 2014-2022 Michigan Health Information Network Shared Services. Licensed under the Apache License, Version 2.0 (the 'License'); you may not use this file except in compliance with the License. You may obtain a copy of the License at  http://www.apache.org/licenses/LICENSE-2.0.  Unless required by applicable law or agreed to in writing, software distributed under the License is distributed on an 'AS IS' BASIS, WITHOUT WARRANTIES OR CONDITIONS OF ANY KIND, either express or implied. See the License for the specific language governing permissions and limitations under the License."
          },
          {
            "url": "http://build.fhir.org/ig/HL7/davinci-crd/R4/ext-insurance.html",
            "valueReference": {
              "reference": "Coverage/492473",
              "display": "Denise Fuller Archer Coverage"
            }
          }
        ],
        "identifier": [
          {
            "use": "official",
            "system": "http://mihin.org/fhir/sid/elementId",
            "value": "b6d93344-082d-4ccc-8f83-40e07a4be08e"
          }
        ],
        "status": "active",
        "intent": "order",
        "medicationCodeableConcept": {
          "coding": [
            {
              "system": "http://www.nlm.nih.gov/research/umls/rxnorm",
              "code": "596926",
              "display": "duloxetine 20 MG Delayed Release Oral Capsule"
            }
          ]
        },
        "subject": {
          "reference": "Patient/23809",
          "display": "Denise Fuller Archer"
        },
        "encounter": {
          "reference": "Encounter/640148",
          "display": "Fibromyalgia [Fibromyalgia_Episode [Encounter]]"
        },
        "authoredOn": "2020-01-26T00:00:00+00:00",
        "requester": {
          "reference": "Practitioner/19941",
          "identifier": {
            "system": "http://hl7.org/fhir/sid/us-npi",
            "value": "9999999341"
          },
          "display": "Lorraine Tara Barker MD"
        },
        "reasonCode": [
          {
            "coding": [
              {
                "system": "http://snomed.info/sct",
                "code": "95417003",
                "display": "Primary fibromyalgia syndrome"
              }
            ]
          },
          {
            "coding": [
              {
                "system": "http://hl7.org/fhir/sid/icd-10",
                "code": "M79.7",
                "display": "Primary fibromyalgia syndrome"
              }
            ]
          }
        ],
        "insurance": [
          {
            "reference": "Coverage/492473",
            "display": "Denise Fuller Archer Coverage"
          }
        ]
      }
    },
    {
      "fullUrl": "https://gw.interop.community/Harrison4Saffron/data/MedicationRequest/671200",
      "resource": {
        "resourceType": "MedicationRequest",
        "id": "671200",
        "meta": {
          "versionId": "1",
          "lastUpdated": "2023-04-04T22:31:10+00:00",
          "source": "#MxutXFahUCbnlZki"
        },
        "text": {
          "status": "generated",
          "div": "<div xmlns=\"http://www.w3.org/1999/xhtml\">This is a simple narrative with only plain text</div>"
        },
        "extension": [
          {
            "url": "http://mihin.org/extension/copyright",
            "valueString": "Copyright 2014-2022 Michigan Health Information Network Shared Services. Licensed under the Apache License, Version 2.0 (the 'License'); you may not use this file except in compliance with the License. You may obtain a copy of the License at  http://www.apache.org/licenses/LICENSE-2.0.  Unless required by applicable law or agreed to in writing, software distributed under the License is distributed on an 'AS IS' BASIS, WITHOUT WARRANTIES OR CONDITIONS OF ANY KIND, either express or implied. See the License for the specific language governing permissions and limitations under the License."
          },
          {
            "url": "http://build.fhir.org/ig/HL7/davinci-crd/R4/ext-insurance.html",
            "valueReference": {
              "reference": "Coverage/492473",
              "display": "Denise Fuller Archer Coverage"
            }
          }
        ],
        "identifier": [
          {
            "use": "official",
            "system": "http://mihin.org/fhir/sid/elementId",
            "value": "66e6a2f1-c51c-4db9-bc76-e7bf5e10aa0d"
          }
        ],
        "status": "active",
        "intent": "order",
        "medicationCodeableConcept": {
          "coding": [
            {
              "system": "http://www.nlm.nih.gov/research/umls/rxnorm",
              "code": "248656",
              "display": "Azithromycin 500 MG Oral Tablet"
            }
          ]
        },
        "subject": {
          "reference": "Patient/23809",
          "display": "Denise Fuller Archer"
        },
        "encounter": {
          "reference": "Encounter/671269",
          "display": "Genital  Herpes [Ambulatory_Encounter [Encounter]]"
        },
        "authoredOn": "2020-03-13T03:40:00+00:00",
        "requester": {
          "reference": "Practitioner/21115",
          "identifier": {
            "system": "http://hl7.org/fhir/sid/us-npi",
            "value": "9999999885"
          },
          "display": "Doris Jamie Guzman MD"
        },
        "reasonCode": [
          {
            "coding": [
              {
                "system": "http://snomed.info/sct",
                "code": "33839006",
                "display": "Genital herpes simplex (disorder)"
              }
            ]
          },
          {
            "coding": [
              {
                "system": "http://hl7.org/fhir/sid/icd-10",
                "code": "A60.9",
                "display": "Genital herpes simplex (disorder)"
              }
            ]
          }
        ],
        "insurance": [
          {
            "reference": "Coverage/492473",
            "display": "Denise Fuller Archer Coverage"
          }
        ]
      }
    },
    {
      "fullUrl": "https://gw.interop.community/Harrison4Saffron/data/Condition/1125636",
      "resource": {
        "resourceType": "Condition",
        "id": "1125636",
        "meta": {
          "versionId": "1",
          "lastUpdated": "2023-04-05T12:12:57+00:00",
          "source": "#vxpqzs01g5qRayCr"
        },
        "text": {
          "status": "generated",
          "div": "<div xmlns=\"http://www.w3.org/1999/xhtml\">This is a simple narrative with only plain text</div>"
        },
        "extension": [
          {
            "url": "http://mihin.org/extension/copyright",
            "valueString": "Copyright 2014-2022 Michigan Health Information Network Shared Services. Licensed under the Apache License, Version 2.0 (the 'License'); you may not use this file except in compliance with the License. You may obtain a copy of the License at  http://www.apache.org/licenses/LICENSE-2.0.  Unless required by applicable law or agreed to in writing, software distributed under the License is distributed on an 'AS IS' BASIS, WITHOUT WARRANTIES OR CONDITIONS OF ANY KIND, either express or implied. See the License for the specific language governing permissions and limitations under the License."
          }
        ],
        "identifier": [
          {
            "use": "official",
            "system": "http://mihin.org/fhir/sid/elementId",
            "value": "63cfb9a0-543b-4be5-a51b-db08870d0749"
          }
        ],
        "clinicalStatus": {
          "coding": [
            {
              "system": "http://hl7.org/fhir/ValueSet/condition-clinical",
              "code": "active",
              "display": "Active"
            }
          ]
        },
        "verificationStatus": {
          "coding": [
            {
              "system": "http://hl7.org/fhir/ValueSet/condition-ver-status",
              "code": "confirmed",
              "display": "Confirmed"
            }
          ]
        },
        "category": [
          {
            "coding": [
              {
                "system": "http://hl7.org/fhir/ValueSet/condition-category",
                "code": "encounter-diagnosis",
                "display": "Encounter Diagnosis"
              }
            ]
          }
        ],
        "code": {
          "coding": [
            {
              "system": "http://snomed.info/sct",
              "code": "40055000",
              "display": "Chronic sinusitis (disorder)"
            },
            {
              "system": "http://hl7.org/fhir/sid/icd-10",
              "code": "J32.9",
              "display": "Chronic sinusitis (disorder)"
            }
          ]
        },
        "subject": {
          "reference": "Patient/23809",
          "display": "Denise Fuller Archer"
        },
        "encounter": {
          "reference": "Encounter/1125576",
          "display": "Sinusitis [Chronic_Sinusitis_Followup [Encounter]]"
        },
        "onsetDateTime": "2020-05-18T14:00:00+00:00",
        "recordedDate": "2020-05-18T14:00:00+00:00",
        "asserter": {
          "reference": "Practitioner/20095",
          "identifier": {
            "system": "http://hl7.org/fhir/sid/us-npi",
            "value": "9999999456"
          },
          "display": "Reginald Stein Lin MD"
        }
      }
    },
    {
      "fullUrl": "https://gw.interop.community/Harrison4Saffron/data/Patient/23809",
      "resource": {
        "resourceType": "Patient",
        "id": "23809",
        "meta": {
          "versionId": "2",
          "lastUpdated": "2023-05-06T04:25:50+00:00",
          "source": "#ewyC4hCqFhbJSehB"
        },
        "text": {
          "status": "generated",
          "div": "<div xmlns=\"http://www.w3.org/1999/xhtml\">This is a simple narrative with only plain text</div>"
        },
        "extension": [
          {
            "url": "http://mihin.org/extension/copyright",
            "valueString": "Copyright 2014-2022 Michigan Health Information Network Shared Services. Licensed under the Apache License, Version 2.0 (the 'License'); you may not use this file except in compliance with the License. You may obtain a copy of the License at  http://www.apache.org/licenses/LICENSE-2.0.  Unless required by applicable law or agreed to in writing, software distributed under the License is distributed on an 'AS IS' BASIS, WITHOUT WARRANTIES OR CONDITIONS OF ANY KIND, either express or implied. See the License for the specific language governing permissions and limitations under the License."
          },
          {
            "url": "http://hl7.org/fhir/us/core/StructureDefinition/us-core-race",
            "valueCodeableConcept": {
              "coding": [
                {
                  "system": "http://terminology.hl7.org/CodeSystem/omb-race-category",
                  "code": "2106-3",
                  "display": "White"
                }
              ]
            }
          },
          {
            "url": "http://hl7.org/fhir/us/core/StructureDefinition/us-core-ethnicity",
            "valueCodeableConcept": {
              "coding": [
                {
                  "system": "http://terminology.hl7.org/CodeSystem/omb-ethnicity-category",
                  "code": "2186-5",
                  "display": "Not Hispanic or Latino"
                }
              ]
            }
          },
          {
            "url": "http://hl7.org/fhir/StructureDefinition/patient-religion",
            "valueCodeableConcept": {
              "coding": [
                {
                  "system": "http://terminology.hl7.org/CodeSystem/v3-ReligiousAffiliation",
                  "code": "1077",
                  "display": "Protestant"
                }
              ]
            }
          }
        ],
        "identifier": [
          {
            "use": "official",
            "type": {
              "coding": [
                {
                  "system": "http://terminology.hl7.org/CodeSystem/v2-0203",
                  "code": "SB",
                  "display": "Social Beneficiary Identifier"
                }
              ]
            },
            "system": "http://hl7.org/fhir/sid/us-ssn",
            "value": "000001455"
          },
          {
            "use": "official",
            "type": {
              "coding": [
                {
                  "system": "http://terminology.hl7.org/CodeSystem/v2-0203",
                  "code": "SB",
                  "display": "Social Beneficiary Identifier"
                }
              ]
            },
            "system": "http://mihin.org/fhir/cks",
            "value": "0c6400dbf30f4f3f84647f1f93f0509c"
          }
        ],
        "active": true,
        "name": [
          {
            "use": "official",
            "family": "Archer",
            "given": [
              "Denise",
              "Fuller"
            ]
          }
        ],
        "telecom": [
          {
            "system": "phone",
            "value": "586-555-3950",
            "use": "home"
          },
          {
            "system": "phone",
            "value": "586-555-6856",
            "use": "mobile"
          }
        ],
        "gender": "female",
        "birthDate": "1972-05-17",
        "address": [
          {
            "use": "home",
            "type": "postal",
            "line": [
              "203 S Thames Street"
            ],
            "city": "Sterling Heights",
            "district": "Harrison",
            "state": "Anywhere",
            "postalCode": "48310"
          }
        ]
      }
    }
  ]
}