{
  "resourceType": "Bundle",
  "id": "e82e85c9-3ba6-4442-bfa2-f0366ddaefee",
  "meta": {
    "versionId": "1",
    "lastUpdated": "2023-05-30T21:41:36.569+00:00",
    "profile": [
      "http://hl7.org/fhir/us/ecr/StructureDefinition/eicr-document-bundle"
    ]
  },
  "identifier": {
    "system": "http://example.com/identifier",
    "value": "Sample Value"
  },
  "type": "document",
  "timestamp": "2023-05-06T18:28:33.977+00:00",
  "entry": [
    {
      "resource": {
        "resourceType": "Composition",
        "id": "cb9179b2-232d-4a60-be62-a4bb06fae9b0",
        "extension": [
          {
            "url": "http://hl7.org/fhir/StructureDefinition/composition-clinicaldocument-versionNumber",
            "valueString": "1"
          }
        ],
        "identifier": {
          "value": "cb9179b2-232d-4a60-be62-a4bb06fae9b0"
        },
        "status": "final",
        "type": {
          "coding": [
            {
              "system": "http://loinc.org",
              "code": "55751-2",
              "display": "Public Health Case Report"
            }
          ],
          "text": "Public Health Case Report"
        },
        "subject": {
          "reference": "https://gw.interop.community/Harrison4Saffron/data/Patient/22922"
        },
        "encounter": {
          "reference": "https://gw.interop.community/Harrison4Saffron/data/Encounter/726422"
        },
        "date": "2023-05-06T18:28:33+00:00",
        "author": [
          {
            "reference": "https://gw.interop.community/Harrison4Saffron/data/Practitioner/20217"
          }
        ],
        "title": "Public Health Case Report",
        "custodian": {
          "reference": "https://gw.interop.community/Harrison4Saffron/data/Organization/17086"
        },
        "section": [
          {
            "code": {
              "coding": [
                {
                  "system": "http://loinc.org",
                  "code": "46239-0",
                  "display": "Chief complaint+Reason for visit Narrative"
                }
              ],
              "text": "Chief complaint+Reason for visit Narrative"
            }
          },
          {
            "code": {
              "coding": [
                {
                  "system": "http://loinc.org",
                  "code": "10164-2",
                  "display": "History of Present illness Narrative"
                }
              ],
              "text": "History of Present illness Narrative"
            }
          },
          {
            "code": {
              "coding": [
                {
                  "system": "http://loinc.org",
                  "code": "10187-3",
                  "display": "Review of Systems narrative"
                }
              ],
              "text": "Review of Systems narrative"
            }
          },
          {
            "code": {
              "coding": [
                {
                  "system": "http://loinc.org",
                  "code": "11450-4",
                  "display": "Problem Section Narrative"
                }
              ],
              "text": "Problem Section Narrative"
            },
            "entry": [
              {
                "reference": "https://gw.interop.community/Harrison4Saffron/data/Condition/500999"
              },
              {
                "reference": "https://gw.interop.community/Harrison4Saffron/data/Condition/726446"
              },
              {
                "extension": [
                  {
                    "extension": [
                      {
                        "url": "triggerCodeValueSet",
                        "valueString": "http://ersd.aimsplatform.org/fhir/ValueSet/dxtc"
                      },
                      {
                        "url": "triggerCodeValueSetVersion",
                        "valueString": "2022-10-19"
                      },
                      {
                        "url": "triggerCode",
                        "valueCoding": {
                          "system": "http://snomed.info/sct",
                          "code": "33839006"
                        }
                      }
                    ],
                    "url": "http://hl7.org/fhir/us/ecr/StructureDefinition/eicr-trigger-code-flag-extension"
                  }
                ],
                "reference": "https://gw.interop.community/Harrison4Saffron/data/Condition/2438521"
              },
              {
                "extension": [
                  {
                    "extension": [
                      {
                        "url": "triggerCodeValueSet",
                        "valueString": "http://ersd.aimsplatform.org/fhir/ValueSet/dxtc"
                      },
                      {
                        "url": "triggerCodeValueSetVersion",
                        "valueString": "2022-10-19"
                      },
                      {
                        "url": "triggerCode",
                        "valueCoding": {
                          "system": "http://snomed.info/sct",
                          "code": "840539006"
                        }
                      }
                    ],
                    "url": "http://hl7.org/fhir/us/ecr/StructureDefinition/eicr-trigger-code-flag-extension"
                  }
                ],
                "reference": "https://gw.interop.community/Harrison4Saffron/data/Condition/726506"
              },
              {
                "reference": "https://gw.interop.community/Harrison4Saffron/data/Condition/1942078"
              },
              {
                "reference": "https://gw.interop.community/Harrison4Saffron/data/Condition/726424"
              },
              {
                "reference": "https://gw.interop.community/Harrison4Saffron/data/Condition/726438"
              },
              {
                "reference": "https://gw.interop.community/Harrison4Saffron/data/Condition/726439"
              },
              {
                "reference": "https://gw.interop.community/Harrison4Saffron/data/Condition/146144"
              },
              {
                "reference": "https://gw.interop.community/Harrison4Saffron/data/Condition/259995"
              },
              {
                "reference": "https://gw.interop.community/Harrison4Saffron/data/Condition/560374"
              }
            ]
          },
          {
            "code": {
              "coding": [
                {
                  "system": "http://loinc.org",
                  "code": "11348-0",
                  "display": "Past Medical History Narrative"
                }
              ],
              "text": "Past Medical History Narrative"
            }
          },
          {
            "code": {
              "coding": [
                {
                  "system": "http://loinc.org",
                  "code": "29549-3",
                  "display": "Medications Administered Narrative"
                }
              ],
              "text": "Medications Administered Narrative"
            },
            "entry": [
              {
                "reference": "https://gw.interop.community/Harrison4Saffron/data/MedicationAdministration/2438527"
              },
              {
                "reference": "https://gw.interop.community/Harrison4Saffron/data/MedicationAdministration/726431"
              }
            ]
          },
          {
            "code": {
              "coding": [
                {
                  "system": "http://loinc.org",
                  "code": "30954-2",
                  "display": "Results Section Narrative"
                }
              ],
              "text": "Results Section Narrative"
            }
          },
          {
            "code": {
              "coding": [
                {
                  "system": "http://loinc.org",
                  "code": "18776-5",
                  "display": "Plan of Treatment Narrative"
                }
              ],
              "text": "Plan of Treatment Narrative"
            },
            "entry": [
              {
                "reference": "https://gw.interop.community/Harrison4Saffron/data/MedicationRequest/726430"
              },
              {
                "reference": "https://gw.interop.community/Harrison4Saffron/data/MedicationRequest/2438526"
              }
            ]
          },
          {
            "code": {
              "coding": [
                {
                  "system": "http://loinc.org",
                  "code": "11369-6",
                  "display": "Immunizations Narrative"
                }
              ],
              "text": "Immunizations Narrative"
            },
            "entry": [
              {
                "reference": "https://gw.interop.community/Harrison4Saffron/data/Immunization/560363"
              },
              {
                "reference": "https://gw.interop.community/Harrison4Saffron/data/Immunization/146130"
              },
              {
                "reference": "https://gw.interop.community/Harrison4Saffron/data/Immunization/560364"
              }
            ]
          },
          {
            "code": {
              "coding": [
                {
                  "system": "http://loinc.org",
                  "code": "47519-4",
                  "display": "Procedure Section Narrative"
                }
              ],
              "text": "Procedure Section Narrative"
            }
          },
          {
            "code": {
              "coding": [
                {
                  "system": "http://loinc.org",
                  "code": "8716-3",
                  "display": "Vital Signs Narrative"
                }
              ],
              "text": "Vital Signs Narrative"
            }
          },
          {
            "code": {
              "coding": [
                {
                  "system": "http://loinc.org",
                  "code": "29762-2",
                  "display": "Social History Narrative"
                }
              ],
              "text": "Social History Narrative"
            }
          },
          {
            "code": {
              "coding": [
                {
                  "system": "http://loinc.org",
                  "code": "90767-5",
                  "display": "Pregnancy Section Narrative"
                }
              ],
              "text": "Pregnancy Section Narrative"
            }
          },
          {
            "code": {
              "coding": [
                {
                  "system": "http://loinc.org",
                  "code": "83910-0",
                  "display": "Emergency Outbreak Section Narrative"
                }
              ],
              "text": "Emergency Outbreak Section Narrative"
            }
          }
        ]
      }
    },
    {
      "fullUrl": "https://gw.interop.community/Harrison4Saffron/data/Condition/500999",
      "resource": {
        "resourceType": "Condition",
        "id": "500999",
        "meta": {
          "versionId": "1",
          "lastUpdated": "2023-04-04T17:13:05+00:00",
          "source": "#7UB37oKltl3tgq6Q"
        },
        "text": {
          "status": "generated",
          "div": "<div xmlns=\"http://www.w3.org/1999/xhtml\">This is a simple narrative with only plain text</div>"
        },
        "extension": [
          {
            "url": "http://mihin.org/extension/copyright",
            "valueString": "Copyright 2014-2022 Michigan Health Information Network Shared Services. Licensed under the Apache License, Version 2.0 (the 'License'); you may not use this file except in compliance with the License. You may obtain a copy of the License at  http://www.apache.org/licenses/LICENSE-2.0.  Unless required by applicable law or agreed to in writing, software distributed under the License is distributed on an 'AS IS' BASIS, WITHOUT WARRANTIES OR CONDITIONS OF ANY KIND, either express or implied. See the License for the specific language governing permissions and limitations under the License."
          }
        ],
        "identifier": [
          {
            "use": "official",
            "system": "http://mihin.org/fhir/sid/elementId",
            "value": "f77ebb2d-a5cb-4d37-97c1-de70df7d53cf"
          }
        ],
        "clinicalStatus": {
          "coding": [
            {
              "system": "http://hl7.org/fhir/ValueSet/condition-clinical",
              "code": "active",
              "display": "Active"
            }
          ]
        },
        "verificationStatus": {
          "coding": [
            {
              "system": "http://hl7.org/fhir/ValueSet/condition-ver-status",
              "code": "confirmed",
              "display": "Confirmed"
            }
          ]
        },
        "category": [
          {
            "coding": [
              {
                "system": "http://hl7.org/fhir/ValueSet/condition-category",
                "code": "encounter-diagnosis",
                "display": "Encounter Diagnosis"
              }
            ]
          }
        ],
        "code": {
          "coding": [
            {
              "system": "http://snomed.info/sct",
              "code": "444814009",
              "display": "Viral sinusitis (disorder)"
            },
            {
              "system": "http://hl7.org/fhir/sid/icd-10",
              "code": "J01.90",
              "display": "Viral sinusitis (disorder)"
            }
          ]
        },
        "subject": {
          "reference": "Patient/22922",
          "display": "Pedro Bradley Schneider Jr"
        },
        "encounter": {
          "reference": "Encounter/500997",
          "display": "Sinusitis [Doctor_Visit [Encounter]]"
        },
        "onsetDateTime": "2019-05-04T09:00:00+00:00",
        "recordedDate": "2019-05-04T09:00:00+00:00",
        "asserter": {
          "reference": "Practitioner/20068",
          "identifier": {
            "system": "http://hl7.org/fhir/sid/us-npi",
            "value": "9999999396"
          },
          "display": "Benjamin Leonard Wilkinson MD"
        }
      }
    },
    {
      "fullUrl": "https://gw.interop.community/Harrison4Saffron/data/Immunization/560363",
      "resource": {
        "resourceType": "Immunization",
        "id": "560363",
        "meta": {
          "versionId": "1",
          "lastUpdated": "2023-04-04T19:06:20+00:00",
          "source": "#u8PwlSGFhWYfboXJ"
        },
        "text": {
          "status": "generated",
          "div": "<div xmlns=\"http://www.w3.org/1999/xhtml\">This is a simple narrative with only plain text</div>"
        },
        "extension": [
          {
            "url": "http://mihin.org/extension/copyright",
            "valueString": "Copyright 2014-2022 Michigan Health Information Network Shared Services. Licensed under the Apache License, Version 2.0 (the 'License'); you may not use this file except in compliance with the License. You may obtain a copy of the License at  http://www.apache.org/licenses/LICENSE-2.0.  Unless required by applicable law or agreed to in writing, software distributed under the License is distributed on an 'AS IS' BASIS, WITHOUT WARRANTIES OR CONDITIONS OF ANY KIND, either express or implied. See the License for the specific language governing permissions and limitations under the License."
          }
        ],
        "identifier": [
          {
            "use": "official",
            "system": "http://mihin.org/fhir/sid/elementId",
            "value": "9a42debe-0a4a-49ae-97b4-f724e1c72ea9"
          }
        ],
        "status": "completed",
        "vaccineCode": {
          "coding": [
            {
              "system": "http://hl7.org/fhir/sid/cvx",
              "code": "140",
              "display": "Influenza, seasonal, injectable, preservative free"
            }
          ]
        },
        "patient": {
          "reference": "Patient/22922",
          "display": "Pedro Bradley Schneider Jr"
        },
        "encounter": {
          "reference": "Encounter/560361",
          "display": "Wellness Encounter created 2017/09/10 00:00 for 2019/08/31"
        },
        "recorded": "2019-08-30T14:40:00+00:00",
        "primarySource": true,
        "location": {
          "reference": "Location/18952",
          "display": "Freedom Physicians"
        },
        "performer": [
          {
            "actor": {
              "reference": "Practitioner/20988",
              "identifier": {
                "system": "http://hl7.org/fhir/sid/us-npi",
                "value": "9999999821"
              },
              "display": "Georgia Darlene Castaneda MD"
            }
          }
        ]
      }
    },
    {
      "fullUrl": "https://gw.interop.community/Harrison4Saffron/data/MedicationAdministration/2438527",
      "resource": {
        "resourceType": "MedicationAdministration",
        "id": "2438527",
        "meta": {
          "versionId": "1",
          "lastUpdated": "2023-04-07T00:59:55+00:00",
          "source": "#nC5Bqn2DO5D5barD"
        },
        "text": {
          "status": "generated",
          "div": "<div xmlns=\"http://www.w3.org/1999/xhtml\">This is a simple narrative with only plain text</div>"
        },
        "extension": [
          {
            "url": "http://mihin.org/extension/copyright",
            "valueString": "Copyright 2014-2022 Michigan Health Information Network Shared Services. Licensed under the Apache License, Version 2.0 (the 'License'); you may not use this file except in compliance with the License. You may obtain a copy of the License at  http://www.apache.org/licenses/LICENSE-2.0.  Unless required by applicable law or agreed to in writing, software distributed under the License is distributed on an 'AS IS' BASIS, WITHOUT WARRANTIES OR CONDITIONS OF ANY KIND, either express or implied. See the License for the specific language governing permissions and limitations under the License."
          }
        ],
        "status": "completed",
        "medicationCodeableConcept": {
          "coding": [
            {
              "system": "http://www.nlm.nih.gov/research/umls/rxnorm",
              "code": "248656",
              "display": "Azithromycin 500 MG Oral Tablet"
            }
          ]
        },
        "subject": {
          "reference": "Patient/22922",
          "display": "Pedro Bradley Schneider Jr"
        },
        "context": {
          "reference": "Encounter/2438561",
          "display": "Genital  Herpes [Ambulatory_Encounter [Encounter]]"
        },
        "effectiveDateTime": "2021-06-09T12:40:00+00:00",
        "performer": [
          {
            "actor": {
              "reference": "Practitioner/20988",
              "identifier": {
                "system": "http://hl7.org/fhir/sid/us-npi",
                "value": "9999999821"
              },
              "display": "Georgia Darlene Castaneda MD"
            }
          }
        ],
        "reasonCode": [
          {
            "coding": [
              {
                "system": "http://snomed.info/sct",
                "code": "33839006",
                "display": "Genital herpes simplex (disorder)"
              }
            ]
          },
          {
            "coding": [
              {
                "system": "http://hl7.org/fhir/sid/icd-10",
                "code": "A60.9",
                "display": "Genital herpes simplex (disorder)"
              }
            ]
          }
        ],
        "request": {
          "reference": "MedicationRequest/2438526",
          "display": "Genital  Herpes [Genital_Herpes_Medication [MedicationOrder]]"
        }
      }
    },
    {
      "fullUrl": "https://gw.interop.community/Harrison4Saffron/data/Organization/17086",
      "resource": {
        "resourceType": "Organization",
        "id": "17086",
        "meta": {
          "versionId": "3",
          "lastUpdated": "2023-05-06T04:21:14+00:00",
          "source": "#9OC5xx7bq7CuKt5n"
        },
        "text": {
          "status": "generated",
          "div": "<div xmlns=\"http://www.w3.org/1999/xhtml\">This is a simple narrative with only plain text</div>"
        },
        "extension": [
          {
            "url": "http://mihin.org/extension/copyright",
            "valueString": "Copyright 2014-2022 Michigan Health Information Network Shared Services. Licensed under the Apache License, Version 2.0 (the 'License'); you may not use this file except in compliance with the License. You may obtain a copy of the License at  http://www.apache.org/licenses/LICENSE-2.0.  Unless required by applicable law or agreed to in writing, software distributed under the License is distributed on an 'AS IS' BASIS, WITHOUT WARRANTIES OR CONDITIONS OF ANY KIND, either express or implied. See the License for the specific language governing permissions and limitations under the License."
          }
        ],
        "identifier": [
          {
            "use": "official",
            "system": "http://www.hl7.org/oid/",
            "value": "1.2.3.4.5.9.99.999.9999.1229"
          },
          {
            "use": "official",
            "type": {
              "coding": [
                {
                  "system": "http://terminology.hl7.org/CodeSystem/v2-0203",
                  "code": "PRN",
                  "display": "Provider number"
                }
              ]
            },
            "system": "http://terminology.hl7.org/CodeSystem/v2-0203",
            "value": "8999991229"
          },
          {
            "use": "official",
            "type": {
              "coding": [
                {
                  "system": "http://terminology.hl7.org/CodeSystem/v2-0203",
                  "code": "TAX",
                  "display": "Tax ID number"
                }
              ]
            },
            "system": "http://terminology.hl7.org/CodeSystem/v2-0203",
            "value": "000001229"
          }
        ],
        "active": true,
        "type": [
          {
            "coding": [
              {
                "system": "http://terminology.hl7.org/CodeSystem/organization-type",
                "code": "prov",
                "display": "Healthcare Provider"
              }
            ]
          }
        ],
        "name": "Five Lakes Ambulatory Services",
        "telecom": [
          {
            "system": "phone",
            "value": "269-555-5708",
            "use": "work"
          }
        ],
        "address": [
          {
            "line": [
              "458 W Maple Street"
            ],
            "city": "Battle Creek",
            "district": "Harrison",
            "state": "Anywhere",
            "postalCode": "49015"
          }
        ],
        "endpoint": [
          {
            "reference": "Endpoint/17477",
            "display": "Five Lakes Ambulatory Services"
          }
        ]
      }
    },
    {
      "fullUrl": "https://gw.interop.community/Harrison4Saffron/data/Condition/726439",
      "resource": {
        "resourceType": "Condition",
        "id": "726439",
        "meta": {
          "versionId": "1",
          "lastUpdated": "2023-04-05T00:10:58+00:00",
          "source": "#9UrxRGab0fjTFOxa"
        },
        "text": {
          "status": "generated",
          "div": "<div xmlns=\"http://www.w3.org/1999/xhtml\">This is a simple narrative with only plain text</div>"
        },
        "extension": [
          {
            "url": "http://mihin.org/extension/copyright",
            "valueString": "Copyright 2014-2022 Michigan Health Information Network Shared Services. Licensed under the Apache License, Version 2.0 (the 'License'); you may not use this file except in compliance with the License. You may obtain a copy of the License at  http://www.apache.org/licenses/LICENSE-2.0.  Unless required by applicable law or agreed to in writing, software distributed under the License is distributed on an 'AS IS' BASIS, WITHOUT WARRANTIES OR CONDITIONS OF ANY KIND, either express or implied. See the License for the specific language governing permissions and limitations under the License."
          }
        ],
        "identifier": [
          {
            "use": "official",
            "system": "http://mihin.org/fhir/sid/elementId",
            "value": "e7767026-f58d-448b-a4d2-9b5e5c2409e3"
          }
        ],
        "clinicalStatus": {
          "coding": [
            {
              "system": "http://hl7.org/fhir/ValueSet/condition-clinical",
              "code": "active",
              "display": "Active"
            }
          ]
        },
        "verificationStatus": {
          "coding": [
            {
              "system": "http://hl7.org/fhir/ValueSet/condition-ver-status",
              "code": "confirmed",
              "display": "Confirmed"
            }
          ]
        },
        "category": [
          {
            "coding": [
              {
                "system": "http://hl7.org/fhir/ValueSet/condition-category",
                "code": "encounter-diagnosis",
                "display": "Encounter Diagnosis"
              }
            ]
          }
        ],
        "code": {
          "coding": [
            {
              "system": "http://snomed.info/sct",
              "code": "36955009",
              "display": "Loss of taste (finding)"
            }
          ]
        },
        "subject": {
          "reference": "Patient/22922",
          "display": "Pedro Bradley Schneider Jr"
        },
        "encounter": {
          "reference": "Encounter/726436",
          "display": "infection [Encounter for Test [Encounter]]"
        },
        "onsetDateTime": "2020-04-12T00:00:00+00:00",
        "recordedDate": "2020-04-12T00:00:00+00:00",
        "asserter": {
          "reference": "Practitioner/19822",
          "identifier": {
            "system": "http://hl7.org/fhir/sid/us-npi",
            "value": "9999999231"
          },
          "display": "Lillian Mercado Ferguson MD"
        }
      }
    },
    {
      "fullUrl": "https://gw.interop.community/Harrison4Saffron/data/Condition/146144",
      "resource": {
        "resourceType": "Condition",
        "id": "146144",
        "meta": {
          "versionId": "3",
          "lastUpdated": "2023-05-05T16:27:26+00:00",
          "source": "#5hWBvfq4U1Y8G5DP"
        },
        "text": {
          "status": "generated",
          "div": "<div xmlns=\"http://www.w3.org/1999/xhtml\">This is a simple narrative with only plain text</div>"
        },
        "extension": [
          {
            "url": "http://mihin.org/extension/copyright",
            "valueString": "Copyright 2014-2022 Michigan Health Information Network Shared Services. Licensed under the Apache License, Version 2.0 (the 'License'); you may not use this file except in compliance with the License. You may obtain a copy of the License at  http://www.apache.org/licenses/LICENSE-2.0.  Unless required by applicable law or agreed to in writing, software distributed under the License is distributed on an 'AS IS' BASIS, WITHOUT WARRANTIES OR CONDITIONS OF ANY KIND, either express or implied. See the License for the specific language governing permissions and limitations under the License."
          }
        ],
        "identifier": [
          {
            "use": "official",
            "system": "http://mihin.org/fhir/sid/elementId",
            "value": "3e4e0370-e985-4ebb-9040-6782a6eb6f98"
          }
        ],
        "clinicalStatus": {
          "coding": [
            {
              "system": "http://terminology.hl7.org/CodeSystem/condition-clinical",
              "code": "active",
              "display": "Active"
            }
          ]
        },
        "verificationStatus": {
          "coding": [
            {
              "system": "http://terminology.hl7.org/CodeSystem/condition-ver-status",
              "code": "confirmed",
              "display": "Confirmed"
            }
          ]
        },
        "category": [
          {
            "coding": [
              {
                "system": "http://terminology.hl7.org/CodeSystem/condition-category",
                "code": "encounter-diagnosis",
                "display": "Encounter Diagnosis"
              }
            ]
          }
        ],
        "code": {
          "coding": [
            {
              "system": "http://snomed.info/sct",
              "code": "sdohcc-sctt-21000243108",
              "display": "Mild food insecurity (finding)"
            }
          ]
        },
        "subject": {
          "reference": "Patient/22922",
          "display": "Pedro Bradley Schneider Jr"
        },
        "encounter": {
          "reference": "Encounter/146281",
          "display": "Wellness Encounter created 2017/01/08 00:00 for 2017/08/29"
        },
        "onsetDateTime": "2017-08-31T10:00:00+00:00",
        "recordedDate": "2017-08-31T10:00:00+00:00",
        "asserter": {
          "reference": "Practitioner/20988",
          "identifier": {
            "system": "http://terminology.hl7.org/CodeSystem/v2-0203",
            "value": "9999999821"
          },
          "display": "Georgia Darlene Castaneda MD"
        }
      }
    },
    {
      "fullUrl": "https://gw.interop.community/Harrison4Saffron/data/Condition/560374",
      "resource": {
        "resourceType": "Condition",
        "id": "560374",
        "meta": {
          "versionId": "1",
          "lastUpdated": "2023-04-04T19:06:20+00:00",
          "source": "#u8PwlSGFhWYfboXJ"
        },
        "text": {
          "status": "generated",
          "div": "<div xmlns=\"http://www.w3.org/1999/xhtml\">This is a simple narrative with only plain text</div>"
        },
        "extension": [
          {
            "url": "http://mihin.org/extension/copyright",
            "valueString": "Copyright 2014-2022 Michigan Health Information Network Shared Services. Licensed under the Apache License, Version 2.0 (the 'License'); you may not use this file except in compliance with the License. You may obtain a copy of the License at  http://www.apache.org/licenses/LICENSE-2.0.  Unless required by applicable law or agreed to in writing, software distributed under the License is distributed on an 'AS IS' BASIS, WITHOUT WARRANTIES OR CONDITIONS OF ANY KIND, either express or implied. See the License for the specific language governing permissions and limitations under the License."
          }
        ],
        "identifier": [
          {
            "use": "official",
            "system": "http://mihin.org/fhir/sid/elementId",
            "value": "7e273da6-e0ce-41c1-9a0e-d5652fb84a50"
          }
        ],
        "clinicalStatus": {
          "coding": [
            {
              "system": "http://hl7.org/fhir/ValueSet/condition-clinical",
              "code": "active",
              "display": "Active"
            }
          ]
        },
        "verificationStatus": {
          "coding": [
            {
              "system": "http://hl7.org/fhir/ValueSet/condition-ver-status",
              "code": "confirmed",
              "display": "Confirmed"
            }
          ]
        },
        "category": [
          {
            "coding": [
              {
                "system": "http://hl7.org/fhir/ValueSet/condition-category",
                "code": "encounter-diagnosis",
                "display": "Encounter Diagnosis"
              }
            ]
          }
        ],
        "code": {
          "coding": [
            {
              "system": "http://snomed.info/sct",
              "code": "sdohcc-sctt-21000243108",
              "display": "Mild food insecurity (finding)"
            }
          ]
        },
        "subject": {
          "reference": "Patient/22922",
          "display": "Pedro Bradley Schneider Jr"
        },
        "encounter": {
          "reference": "Encounter/560361",
          "display": "Wellness Encounter created 2017/09/10 00:00 for 2019/08/31"
        },
        "onsetDateTime": "2019-08-30T14:40:00+00:00",
        "recordedDate": "2019-08-30T14:40:00+00:00",
        "asserter": {
          "reference": "Practitioner/20988",
          "identifier": {
            "system": "http://hl7.org/fhir/sid/us-npi",
            "value": "9999999821"
          },
          "display": "Georgia Darlene Castaneda MD"
        }
      }
    },
    {
      "fullUrl": "https://gw.interop.community/Harrison4Saffron/data/Practitioner/20217",
      "resource": {
        "resourceType": "Practitioner",
        "id": "20217",
        "meta": {
          "versionId": "2",
          "lastUpdated": "2023-05-06T04:34:06+00:00",
          "source": "#WpwOWLk5keFbDoLa"
        },
        "text": {
          "status": "generated",
          "div": "<div xmlns=\"http://www.w3.org/1999/xhtml\">This is a simple narrative with only plain text</div>"
        },
        "extension": [
          {
            "url": "http://mihin.org/extension/copyright",
            "valueString": "Copyright 2014-2022 Michigan Health Information Network Shared Services. Licensed under the Apache License, Version 2.0 (the 'License'); you may not use this file except in compliance with the License. You may obtain a copy of the License at  http://www.apache.org/licenses/LICENSE-2.0.  Unless required by applicable law or agreed to in writing, software distributed under the License is distributed on an 'AS IS' BASIS, WITHOUT WARRANTIES OR CONDITIONS OF ANY KIND, either express or implied. See the License for the specific language governing permissions and limitations under the License."
          }
        ],
        "identifier": [
          {
            "use": "official",
            "type": {
              "coding": [
                {
                  "system": "http://terminology.hl7.org/CodeSystem/v2-0203",
                  "code": "SB",
                  "display": "Social Beneficiary Identifier"
                }
              ]
            },
            "system": "http://hl7.org/fhir/sid/us-ssn",
            "value": "000000400"
          },
          {
            "use": "official",
            "type": {
              "coding": [
                {
                  "system": "http://terminology.hl7.org/CodeSystem/v2-0203",
                  "code": "SB",
                  "display": "Social Beneficiary Identifier"
                }
              ]
            },
            "system": "http://mihin.org/fhir/cks",
            "value": "da820b0f5d004a3fa95f0a3ea6c80be8"
          },
          {
            "use": "official",
            "type": {
              "coding": [
                {
                  "system": "http://terminology.hl7.org/CodeSystem/v2-0203",
                  "code": "PRN",
                  "display": "Provider number"
                }
              ]
            },
            "system": "http://terminology.hl7.org/CodeSystem/v2-0203",
            "value": "9999999400"
          }
        ],
        "active": true,
        "name": [
          {
            "use": "official",
            "family": "MacIas",
            "given": [
              "Matthew",
              "Roberson"
            ],
            "suffix": [
              "MD"
            ]
          }
        ],
        "telecom": [
          {
            "system": "phone",
            "value": "616-555-3423",
            "use": "home"
          },
          {
            "system": "phone",
            "value": "616-555-7316",
            "use": "mobile"
          }
        ],
        "address": [
          {
            "use": "work",
            "type": "postal",
            "line": [
              "803 Pecan Street"
            ],
            "city": "Battle Creek",
            "district": "Harrison",
            "state": "Anywhere",
            "postalCode": "49017"
          }
        ],
        "gender": "male",
        "birthDate": "1988-05-20",
        "qualification": [
          {
            "identifier": [
              {
                "use": "official",
                "type": {
                  "coding": [
                    {
                      "system": "http://terminology.hl7.org/CodeSystem/v2-0203",
                      "code": "MD",
                      "display": "Medical License number"
                    }
                  ]
                },
                "system": "http://anywhere.gov/fhir/medical-license",
                "value": "LIC-400"
              }
            ],
            "code": {
              "coding": [
                {
                  "system": "http://terminology.hl7.org/CodeSystem/v2-0360",
                  "code": "MD",
                  "display": "Doctor of Medicine"
                }
              ]
            },
            "period": {
              "start": "2017-01-01T00:00:00+00:00",
              "end": "2022-12-31T00:00:00+00:00"
            },
            "issuer": {
              "reference": "Organization/17081",
              "display": "State Licensing Board"
            }
          }
        ]
      }
    },
    {
      "fullUrl": "https://gw.interop.community/Harrison4Saffron/data/Condition/726446",
      "resource": {
        "resourceType": "Condition",
        "id": "726446",
        "meta": {
          "versionId": "1",
          "lastUpdated": "2023-04-05T00:10:58+00:00",
          "source": "#9UrxRGab0fjTFOxa"
        },
        "text": {
          "status": "generated",
          "div": "<div xmlns=\"http://www.w3.org/1999/xhtml\">This is a simple narrative with only plain text</div>"
        },
        "extension": [
          {
            "url": "http://mihin.org/extension/copyright",
            "valueString": "Copyright 2014-2022 Michigan Health Information Network Shared Services. Licensed under the Apache License, Version 2.0 (the 'License'); you may not use this file except in compliance with the License. You may obtain a copy of the License at  http://www.apache.org/licenses/LICENSE-2.0.  Unless required by applicable law or agreed to in writing, software distributed under the License is distributed on an 'AS IS' BASIS, WITHOUT WARRANTIES OR CONDITIONS OF ANY KIND, either express or implied. See the License for the specific language governing permissions and limitations under the License."
          }
        ],
        "identifier": [
          {
            "use": "official",
            "system": "http://mihin.org/fhir/sid/elementId",
            "value": "23056ac2-ef43-4694-96a0-9e60a36ad619"
          }
        ],
        "clinicalStatus": {
          "coding": [
            {
              "system": "http://hl7.org/fhir/ValueSet/condition-clinical",
              "code": "active",
              "display": "Active"
            }
          ]
        },
        "verificationStatus": {
          "coding": [
            {
              "system": "http://hl7.org/fhir/ValueSet/condition-ver-status",
              "code": "confirmed",
              "display": "Confirmed"
            }
          ]
        },
        "category": [
          {
            "coding": [
              {
                "system": "http://hl7.org/fhir/ValueSet/condition-category",
                "code": "encounter-diagnosis",
                "display": "Encounter Diagnosis"
              }
            ]
          }
        ],
        "code": {
          "coding": [
            {
              "system": "http://snomed.info/sct",
              "code": "840544004",
              "display": "Suspected COVID-19"
            }
          ]
        },
        "subject": {
          "reference": "Patient/22922",
          "display": "Pedro Bradley Schneider Jr"
        },
        "encounter": {
          "reference": "Encounter/726436",
          "display": "infection [Encounter for Test [Encounter]]"
        },
        "onsetDateTime": "2020-04-12T00:00:00+00:00",
        "recordedDate": "2020-04-12T00:00:00+00:00",
        "asserter": {
          "reference": "Practitioner/19822",
          "identifier": {
            "system": "http://hl7.org/fhir/sid/us-npi",
            "value": "9999999231"
          },
          "display": "Lillian Mercado Ferguson MD"
        }
      }
    },
    {
      "fullUrl": "https://gw.interop.community/Harrison4Saffron/data/Condition/2438521",
      "resource": {
        "resourceType": "Condition",
        "id": "2438521",
        "meta": {
          "versionId": "1",
          "lastUpdated": "2023-04-07T00:59:55+00:00",
          "source": "#nC5Bqn2DO5D5barD"
        },
        "text": {
          "status": "generated",
          "div": "<div xmlns=\"http://www.w3.org/1999/xhtml\">This is a simple narrative with only plain text</div>"
        },
        "extension": [
          {
            "url": "http://mihin.org/extension/copyright",
            "valueString": "Copyright 2014-2022 Michigan Health Information Network Shared Services. Licensed under the Apache License, Version 2.0 (the 'License'); you may not use this file except in compliance with the License. You may obtain a copy of the License at  http://www.apache.org/licenses/LICENSE-2.0.  Unless required by applicable law or agreed to in writing, software distributed under the License is distributed on an 'AS IS' BASIS, WITHOUT WARRANTIES OR CONDITIONS OF ANY KIND, either express or implied. See the License for the specific language governing permissions and limitations under the License."
          }
        ],
        "identifier": [
          {
            "use": "official",
            "system": "http://mihin.org/fhir/sid/elementId",
            "value": "39b4e520-7b1c-45d2-8965-5b263470f885"
          }
        ],
        "clinicalStatus": {
          "coding": [
            {
              "system": "http://hl7.org/fhir/ValueSet/condition-clinical",
              "code": "active",
              "display": "Active"
            }
          ]
        },
        "verificationStatus": {
          "coding": [
            {
              "system": "http://hl7.org/fhir/ValueSet/condition-ver-status",
              "code": "confirmed",
              "display": "Confirmed"
            }
          ]
        },
        "category": [
          {
            "coding": [
              {
                "system": "http://hl7.org/fhir/ValueSet/condition-category",
                "code": "encounter-diagnosis",
                "display": "Encounter Diagnosis"
              }
            ]
          }
        ],
        "code": {
          "coding": [
            {
              "system": "http://snomed.info/sct",
              "code": "33839006",
              "display": "Genital herpes simplex (disorder)"
            },
            {
              "system": "http://hl7.org/fhir/sid/icd-10",
              "code": "A60.9",
              "display": "Genital herpes simplex (disorder)"
            }
          ]
        },
        "subject": {
          "reference": "Patient/22922",
          "display": "Pedro Bradley Schneider Jr"
        },
        "encounter": {
          "reference": "Encounter/2438561",
          "display": "Genital  Herpes [Ambulatory_Encounter [Encounter]]"
        },
        "onsetDateTime": "2021-05-19T12:40:00+00:00",
        "recordedDate": "2021-05-19T12:40:00+00:00",
        "asserter": {
          "reference": "Practitioner/20988",
          "identifier": {
            "system": "http://hl7.org/fhir/sid/us-npi",
            "value": "9999999821"
          },
          "display": "Georgia Darlene Castaneda MD"
        }
      }
    },
    {
      "fullUrl": "https://gw.interop.community/Harrison4Saffron/data/Condition/726506",
      "resource": {
        "resourceType": "Condition",
        "id": "726506",
        "meta": {
          "versionId": "1",
          "lastUpdated": "2023-04-05T00:10:58+00:00",
          "source": "#9UrxRGab0fjTFOxa"
        },
        "text": {
          "status": "generated",
          "div": "<div xmlns=\"http://www.w3.org/1999/xhtml\">This is a simple narrative with only plain text</div>"
        },
        "extension": [
          {
            "url": "http://mihin.org/extension/copyright",
            "valueString": "Copyright 2014-2022 Michigan Health Information Network Shared Services. Licensed under the Apache License, Version 2.0 (the 'License'); you may not use this file except in compliance with the License. You may obtain a copy of the License at  http://www.apache.org/licenses/LICENSE-2.0.  Unless required by applicable law or agreed to in writing, software distributed under the License is distributed on an 'AS IS' BASIS, WITHOUT WARRANTIES OR CONDITIONS OF ANY KIND, either express or implied. See the License for the specific language governing permissions and limitations under the License."
          }
        ],
        "identifier": [
          {
            "use": "official",
            "system": "http://mihin.org/fhir/sid/elementId",
            "value": "cbb2c19d-20ed-45df-bb7e-dd1a7c629041"
          }
        ],
        "clinicalStatus": {
          "coding": [
            {
              "system": "http://hl7.org/fhir/ValueSet/condition-clinical",
              "code": "active",
              "display": "Active"
            }
          ]
        },
        "verificationStatus": {
          "coding": [
            {
              "system": "http://hl7.org/fhir/ValueSet/condition-ver-status",
              "code": "confirmed",
              "display": "Confirmed"
            }
          ]
        },
        "category": [
          {
            "coding": [
              {
                "system": "http://hl7.org/fhir/ValueSet/condition-category",
                "code": "encounter-diagnosis",
                "display": "Encounter Diagnosis"
              }
            ]
          }
        ],
        "code": {
          "coding": [
            {
              "system": "http://snomed.info/sct",
              "code": "840539006",
              "display": "COVID-19"
            }
          ]
        },
        "subject": {
          "reference": "Patient/22922",
          "display": "Pedro Bradley Schneider Jr"
        },
        "encounter": {
          "reference": "Encounter/726436",
          "display": "infection [Encounter for Test [Encounter]]"
        },
        "onsetDateTime": "2020-04-12T01:36:00+00:00",
        "recordedDate": "2020-04-12T01:36:00+00:00",
        "asserter": {
          "reference": "Practitioner/19822",
          "identifier": {
            "system": "http://hl7.org/fhir/sid/us-npi",
            "value": "9999999231"
          },
          "display": "Lillian Mercado Ferguson MD"
        }
      }
    },
    {
      "fullUrl": "https://gw.interop.community/Harrison4Saffron/data/Patient/22922",
      "resource": {
        "resourceType": "Patient",
        "id": "22922",
        "meta": {
          "versionId": "2",
          "lastUpdated": "2023-05-06T04:23:57+00:00",
          "source": "#fpx8uiQZ2RVfluSO"
        },
        "text": {
          "status": "generated",
          "div": "<div xmlns=\"http://www.w3.org/1999/xhtml\">This is a simple narrative with only plain text</div>"
        },
        "extension": [
          {
            "url": "http://mihin.org/extension/copyright",
            "valueString": "Copyright 2014-2022 Michigan Health Information Network Shared Services. Licensed under the Apache License, Version 2.0 (the 'License'); you may not use this file except in compliance with the License. You may obtain a copy of the License at  http://www.apache.org/licenses/LICENSE-2.0.  Unless required by applicable law or agreed to in writing, software distributed under the License is distributed on an 'AS IS' BASIS, WITHOUT WARRANTIES OR CONDITIONS OF ANY KIND, either express or implied. See the License for the specific language governing permissions and limitations under the License."
          },
          {
            "url": "http://hl7.org/fhir/us/core/StructureDefinition/us-core-race",
            "valueCodeableConcept": {
              "coding": [
                {
                  "system": "http://terminology.hl7.org/CodeSystem/omb-race-category",
                  "code": "2106-3",
                  "display": "White"
                }
              ]
            }
          },
          {
            "url": "http://hl7.org/fhir/us/core/StructureDefinition/us-core-ethnicity",
            "valueCodeableConcept": {
              "coding": [
                {
                  "system": "http://terminology.hl7.org/CodeSystem/omb-ethnicity-category",
                  "code": "2186-5",
                  "display": "Not Hispanic or Latino"
                }
              ]
            }
          },
          {
            "url": "http://hl7.org/fhir/StructureDefinition/patient-religion",
            "valueCodeableConcept": {
              "coding": [
                {
                  "system": "http://terminology.hl7.org/CodeSystem/v3-ReligiousAffiliation",
                  "code": "1025",
                  "display": "Jehovah's Witnesses"
                }
              ]
            }
          }
        ],
        "identifier": [
          {
            "use": "official",
            "type": {
              "coding": [
                {
                  "system": "http://terminology.hl7.org/CodeSystem/v2-0203",
                  "code": "SB",
                  "display": "Social Beneficiary Identifier"
                }
              ]
            },
            "system": "http://hl7.org/fhir/sid/us-ssn",
            "value": "000001011"
          },
          {
            "use": "official",
            "type": {
              "coding": [
                {
                  "system": "http://terminology.hl7.org/CodeSystem/v2-0203",
                  "code": "SB",
                  "display": "Social Beneficiary Identifier"
                }
              ]
            },
            "system": "http://mihin.org/fhir/cks",
            "value": "08be88c8fcf7465f828f46847f9a2b34"
          }
        ],
        "active": true,
        "name": [
          {
            "use": "official",
            "family": "Schneider",
            "given": [
              "Pedro",
              "Bradley"
            ],
            "suffix": [
              "Jr"
            ]
          }
        ],
        "telecom": [
          {
            "system": "phone",
            "value": "517-555-6336",
            "use": "home"
          },
          {
            "system": "phone",
            "value": "517-555-5336",
            "use": "mobile"
          }
        ],
        "gender": "male",
        "birthDate": "1976-04-22",
        "address": [
          {
            "use": "home",
            "type": "postal",
            "line": [
              "173 NW Jefferson Street"
            ],
            "city": "Jackson",
            "district": "Harrison",
            "state": "Anywhere",
            "postalCode": "49203"
          }
        ]
      }
    },
    {
      "fullUrl": "https://gw.interop.community/Harrison4Saffron/data/Condition/1942078",
      "resource": {
        "resourceType": "Condition",
        "id": "1942078",
        "meta": {
          "versionId": "1",
          "lastUpdated": "2023-04-06T11:15:24+00:00",
          "source": "#x3jPd30CU9XUjeNj"
        },
        "text": {
          "status": "generated",
          "div": "<div xmlns=\"http://www.w3.org/1999/xhtml\">This is a simple narrative with only plain text</div>"
        },
        "extension": [
          {
            "url": "http://mihin.org/extension/copyright",
            "valueString": "Copyright 2014-2022 Michigan Health Information Network Shared Services. Licensed under the Apache License, Version 2.0 (the 'License'); you may not use this file except in compliance with the License. You may obtain a copy of the License at  http://www.apache.org/licenses/LICENSE-2.0.  Unless required by applicable law or agreed to in writing, software distributed under the License is distributed on an 'AS IS' BASIS, WITHOUT WARRANTIES OR CONDITIONS OF ANY KIND, either express or implied. See the License for the specific language governing permissions and limitations under the License."
          }
        ],
        "identifier": [
          {
            "use": "official",
            "system": "http://mihin.org/fhir/sid/elementId",
            "value": "5d190a4b-68d0-48c7-b61e-c2ade6e95f8e"
          }
        ],
        "clinicalStatus": {
          "coding": [
            {
              "system": "http://hl7.org/fhir/ValueSet/condition-clinical",
              "code": "active",
              "display": "Active"
            }
          ]
        },
        "verificationStatus": {
          "coding": [
            {
              "system": "http://hl7.org/fhir/ValueSet/condition-ver-status",
              "code": "confirmed",
              "display": "Confirmed"
            }
          ]
        },
        "category": [
          {
            "coding": [
              {
                "system": "http://hl7.org/fhir/ValueSet/condition-category",
                "code": "encounter-diagnosis",
                "display": "Encounter Diagnosis"
              }
            ]
          }
        ],
        "code": {
          "coding": [
            {
              "system": "http://snomed.info/sct",
              "code": "86849004",
              "display": "Suicidal deliberate poisoning"
            },
            {
              "system": "http://hl7.org/fhir/sid/icd-10",
              "code": "T50.902",
              "display": "Suicidal deliberate poisoning"
            }
          ]
        },
        "subject": {
          "reference": "Patient/22922",
          "display": "Pedro Bradley Schneider Jr"
        },
        "encounter": {
          "reference": "Encounter/1942076",
          "display": "Self Harm [ED_Visit_For_Attempted_Suicide [Encounter]]"
        },
        "onsetDateTime": "2021-01-03T00:00:00+00:00",
        "recordedDate": "2021-01-03T00:00:00+00:00",
        "asserter": {
          "reference": "Practitioner/19687",
          "identifier": {
            "system": "http://hl7.org/fhir/sid/us-npi",
            "value": "9999999220"
          },
          "display": "Ruby Terry Grant MD"
        }
      }
    },
    {
      "fullUrl": "https://gw.interop.community/Harrison4Saffron/data/MedicationRequest/726430",
      "resource": {
        "resourceType": "MedicationRequest",
        "id": "726430",
        "meta": {
          "versionId": "1",
          "lastUpdated": "2023-04-05T00:10:57+00:00",
          "source": "#YG82rn9LXkgfzsRA"
        },
        "text": {
          "status": "generated",
          "div": "<div xmlns=\"http://www.w3.org/1999/xhtml\">This is a simple narrative with only plain text</div>"
        },
        "extension": [
          {
            "url": "http://mihin.org/extension/copyright",
            "valueString": "Copyright 2014-2022 Michigan Health Information Network Shared Services. Licensed under the Apache License, Version 2.0 (the 'License'); you may not use this file except in compliance with the License. You may obtain a copy of the License at  http://www.apache.org/licenses/LICENSE-2.0.  Unless required by applicable law or agreed to in writing, software distributed under the License is distributed on an 'AS IS' BASIS, WITHOUT WARRANTIES OR CONDITIONS OF ANY KIND, either express or implied. See the License for the specific language governing permissions and limitations under the License."
          },
          {
            "url": "http://build.fhir.org/ig/HL7/davinci-crd/R4/ext-insurance.html",
            "valueReference": {
              "reference": "Coverage/704346",
              "display": "Pedro Bradley Schneider Jr Coverage"
            }
          }
        ],
        "identifier": [
          {
            "use": "official",
            "system": "http://mihin.org/fhir/sid/elementId",
            "value": "f8c52cb7-2a9a-4ef5-95ce-630270a7278d"
          }
        ],
        "status": "active",
        "intent": "order",
        "medicationCodeableConcept": {
          "coding": [
            {
              "system": "http://www.nlm.nih.gov/research/umls/rxnorm",
              "code": "198014",
              "display": "Naproxen 500 MG Oral Tablet"
            }
          ]
        },
        "subject": {
          "reference": "Patient/22922",
          "display": "Pedro Bradley Schneider Jr"
        },
        "encounter": {
          "reference": "Encounter/726422",
          "display": "Fibromyalgia [Fibromyalgia_Diagnosis [Encounter]]"
        },
        "authoredOn": "2020-04-23T11:00:00+00:00",
        "requester": {
          "reference": "Practitioner/20217",
          "identifier": {
            "system": "http://hl7.org/fhir/sid/us-npi",
            "value": "9999999400"
          },
          "display": "Matthew Roberson MacIas MD"
        },
        "reasonCode": [
          {
            "coding": [
              {
                "system": "http://snomed.info/sct",
                "code": "95417003",
                "display": "Primary fibromyalgia syndrome"
              }
            ]
          },
          {
            "coding": [
              {
                "system": "http://hl7.org/fhir/sid/icd-10",
                "code": "M79.7",
                "display": "Primary fibromyalgia syndrome"
              }
            ]
          }
        ],
        "insurance": [
          {
            "reference": "Coverage/704346",
            "display": "Pedro Bradley Schneider Jr Coverage"
          }
        ]
      }
    },
    {
      "fullUrl": "https://gw.interop.community/Harrison4Saffron/data/Condition/726424",
      "resource": {
        "resourceType": "Condition",
        "id": "726424",
        "meta": {
          "versionId": "3",
          "lastUpdated": "2023-05-04T16:47:28+00:00",
          "source": "#JK09cKtFIMebU703"
        },
        "text": {
          "status": "generated",
          "div": "<div xmlns=\"http://www.w3.org/1999/xhtml\">This is a simple narrative with only plain text</div>"
        },
        "extension": [
          {
            "url": "http://mihin.org/extension/copyright",
            "valueString": "Copyright 2014-2022 Michigan Health Information Network Shared Services. Licensed under the Apache License, Version 2.0 (the 'License'); you may not use this file except in compliance with the License. You may obtain a copy of the License at  http://www.apache.org/licenses/LICENSE-2.0.  Unless required by applicable law or agreed to in writing, software distributed under the License is distributed on an 'AS IS' BASIS, WITHOUT WARRANTIES OR CONDITIONS OF ANY KIND, either express or implied. See the License for the specific language governing permissions and limitations under the License."
          }
        ],
        "identifier": [
          {
            "use": "official",
            "system": "http://mihin.org/fhir/sid/elementId",
            "value": "a36af648-c2f5-4ef6-9665-0f289facd972"
          }
        ],
        "clinicalStatus": {
          "coding": [
            {
              "system": "http://hl7.org/fhir/ValueSet/condition-clinical",
              "code": "active",
              "display": "Active"
            }
          ]
        },
        "verificationStatus": {
          "coding": [
            {
              "system": "http://hl7.org/fhir/ValueSet/condition-ver-status",
              "code": "confirmed",
              "display": "Confirmed"
            }
          ]
        },
        "category": [
          {
            "coding": [
              {
                "system": "http://hl7.org/fhir/ValueSet/condition-category",
                "code": "encounter-diagnosis",
                "display": "Encounter Diagnosis"
              }
            ]
          }
        ],
        "code": {
          "coding": [
            {
              "system": "http://snomed.info/sct",
              "code": "95417003",
              "display": "Influenza (Disorder)"
            },
            {
              "system": "http://hl7.org/fhir/sid/icd-10",
              "code": "J10.1",
              "display": "Influenza (Disorder)"
            }
          ]
        },
        "subject": {
          "reference": "Patient/22922",
          "display": "Pedro Bradley Schneider Jr"
        },
        "encounter": {
          "reference": "Encounter/726422",
          "display": "Influenza (Disorder) [Doctor_Visit [Encounter]]"
        },
        "onsetDateTime": "2023-05-05T00:00:00+00:00",
        "recordedDate": "2023-05-05T00:00:00+00:00",
        "asserter": {
          "reference": "Practitioner/20217",
          "identifier": {
            "system": "http://hl7.org/fhir/sid/us-npi",
            "value": "9999999400"
          },
          "display": "Matthew Roberson MacIas MD"
        }
      }
    },
    {
      "fullUrl": "https://gw.interop.community/Harrison4Saffron/data/Condition/726438",
      "resource": {
        "resourceType": "Condition",
        "id": "726438",
        "meta": {
          "versionId": "1",
          "lastUpdated": "2023-04-05T00:10:58+00:00",
          "source": "#9UrxRGab0fjTFOxa"
        },
        "text": {
          "status": "generated",
          "div": "<div xmlns=\"http://www.w3.org/1999/xhtml\">This is a simple narrative with only plain text</div>"
        },
        "extension": [
          {
            "url": "http://mihin.org/extension/copyright",
            "valueString": "Copyright 2014-2022 Michigan Health Information Network Shared Services. Licensed under the Apache License, Version 2.0 (the 'License'); you may not use this file except in compliance with the License. You may obtain a copy of the License at  http://www.apache.org/licenses/LICENSE-2.0.  Unless required by applicable law or agreed to in writing, software distributed under the License is distributed on an 'AS IS' BASIS, WITHOUT WARRANTIES OR CONDITIONS OF ANY KIND, either express or implied. See the License for the specific language governing permissions and limitations under the License."
          }
        ],
        "identifier": [
          {
            "use": "official",
            "system": "http://mihin.org/fhir/sid/elementId",
            "value": "b7cccbba-75c6-4cb6-92e6-635c935e585a"
          }
        ],
        "clinicalStatus": {
          "coding": [
            {
              "system": "http://hl7.org/fhir/ValueSet/condition-clinical",
              "code": "active",
              "display": "Active"
            }
          ]
        },
        "verificationStatus": {
          "coding": [
            {
              "system": "http://hl7.org/fhir/ValueSet/condition-ver-status",
              "code": "confirmed",
              "display": "Confirmed"
            }
          ]
        },
        "category": [
          {
            "coding": [
              {
                "system": "http://hl7.org/fhir/ValueSet/condition-category",
                "code": "encounter-diagnosis",
                "display": "Encounter Diagnosis"
              }
            ]
          }
        ],
        "code": {
          "coding": [
            {
              "system": "http://snomed.info/sct",
              "code": "84229001",
              "display": "Fatigue (finding)"
            }
          ]
        },
        "subject": {
          "reference": "Patient/22922",
          "display": "Pedro Bradley Schneider Jr"
        },
        "encounter": {
          "reference": "Encounter/726436",
          "display": "infection [Encounter for Test [Encounter]]"
        },
        "onsetDateTime": "2020-04-12T00:00:00+00:00",
        "recordedDate": "2020-04-12T00:00:00+00:00",
        "asserter": {
          "reference": "Practitioner/19822",
          "identifier": {
            "system": "http://hl7.org/fhir/sid/us-npi",
            "value": "9999999231"
          },
          "display": "Lillian Mercado Ferguson MD"
        }
      }
    },
    {
      "fullUrl": "https://gw.interop.community/Harrison4Saffron/data/MedicationAdministration/726431",
      "resource": {
        "resourceType": "MedicationAdministration",
        "id": "726431",
        "meta": {
          "versionId": "1",
          "lastUpdated": "2023-04-05T00:10:57+00:00",
          "source": "#YG82rn9LXkgfzsRA"
        },
        "text": {
          "status": "generated",
          "div": "<div xmlns=\"http://www.w3.org/1999/xhtml\">This is a simple narrative with only plain text</div>"
        },
        "extension": [
          {
            "url": "http://mihin.org/extension/copyright",
            "valueString": "Copyright 2014-2022 Michigan Health Information Network Shared Services. Licensed under the Apache License, Version 2.0 (the 'License'); you may not use this file except in compliance with the License. You may obtain a copy of the License at  http://www.apache.org/licenses/LICENSE-2.0.  Unless required by applicable law or agreed to in writing, software distributed under the License is distributed on an 'AS IS' BASIS, WITHOUT WARRANTIES OR CONDITIONS OF ANY KIND, either express or implied. See the License for the specific language governing permissions and limitations under the License."
          }
        ],
        "status": "completed",
        "medicationCodeableConcept": {
          "coding": [
            {
              "system": "http://www.nlm.nih.gov/research/umls/rxnorm",
              "code": "198014",
              "display": "Naproxen 500 MG Oral Tablet"
            }
          ]
        },
        "subject": {
          "reference": "Patient/22922",
          "display": "Pedro Bradley Schneider Jr"
        },
        "context": {
          "reference": "Encounter/726422",
          "display": "Fibromyalgia [Fibromyalgia_Diagnosis [Encounter]]"
        },
        "effectiveDateTime": "2020-04-23T11:00:00+00:00",
        "performer": [
          {
            "actor": {
              "reference": "Practitioner/20217",
              "identifier": {
                "system": "http://hl7.org/fhir/sid/us-npi",
                "value": "9999999400"
              },
              "display": "Matthew Roberson MacIas MD"
            }
          }
        ],
        "reasonCode": [
          {
            "coding": [
              {
                "system": "http://snomed.info/sct",
                "code": "95417003",
                "display": "Primary fibromyalgia syndrome"
              }
            ]
          },
          {
            "coding": [
              {
                "system": "http://hl7.org/fhir/sid/icd-10",
                "code": "M79.7",
                "display": "Primary fibromyalgia syndrome"
              }
            ]
          }
        ],
        "request": {
          "reference": "MedicationRequest/726430",
          "display": "Fibromyalgia [Strong_NSAID [MedicationOrder]]"
        }
      }
    },
    {
      "fullUrl": "https://gw.interop.community/Harrison4Saffron/data/Immunization/146130",
      "resource": {
        "resourceType": "Immunization",
        "id": "146130",
        "meta": {
          "versionId": "1",
          "lastUpdated": "2023-04-04T05:48:38+00:00",
          "source": "#HDReSRY6JjZDsjVM"
        },
        "text": {
          "status": "generated",
          "div": "<div xmlns=\"http://www.w3.org/1999/xhtml\">This is a simple narrative with only plain text</div>"
        },
        "extension": [
          {
            "url": "http://mihin.org/extension/copyright",
            "valueString": "Copyright 2014-2022 Michigan Health Information Network Shared Services. Licensed under the Apache License, Version 2.0 (the 'License'); you may not use this file except in compliance with the License. You may obtain a copy of the License at  http://www.apache.org/licenses/LICENSE-2.0.  Unless required by applicable law or agreed to in writing, software distributed under the License is distributed on an 'AS IS' BASIS, WITHOUT WARRANTIES OR CONDITIONS OF ANY KIND, either express or implied. See the License for the specific language governing permissions and limitations under the License."
          }
        ],
        "identifier": [
          {
            "use": "official",
            "system": "http://mihin.org/fhir/sid/elementId",
            "value": "0c844905-3a67-4296-98ac-68112b6311b6"
          }
        ],
        "status": "completed",
        "vaccineCode": {
          "coding": [
            {
              "system": "http://hl7.org/fhir/sid/cvx",
              "code": "140",
              "display": "Influenza, seasonal, injectable, preservative free"
            }
          ]
        },
        "patient": {
          "reference": "Patient/22922",
          "display": "Pedro Bradley Schneider Jr"
        },
        "encounter": {
          "reference": "Encounter/146281",
          "display": "Wellness Encounter created 2017/01/08 00:00 for 2017/08/29"
        },
        "recorded": "2017-08-31T10:00:00+00:00",
        "primarySource": true,
        "location": {
          "reference": "Location/18952",
          "display": "Freedom Physicians"
        },
        "performer": [
          {
            "actor": {
              "reference": "Practitioner/20988",
              "identifier": {
                "system": "http://hl7.org/fhir/sid/us-npi",
                "value": "9999999821"
              },
              "display": "Georgia Darlene Castaneda MD"
            }
          }
        ]
      }
    },
    {
      "fullUrl": "https://gw.interop.community/Harrison4Saffron/data/Encounter/726422",
      "resource": {
        "resourceType": "Encounter",
        "id": "726422",
        "meta": {
          "versionId": "2",
          "lastUpdated": "2023-05-02T18:42:05+00:00",
          "source": "#MdOvv8dfOMSYVTlE"
        },
        "text": {
          "status": "generated",
          "div": "<div xmlns=\"http://www.w3.org/1999/xhtml\">This is a simple narrative with only plain text</div>"
        },
        "extension": [
          {
            "url": "http://mihin.org/extension/copyright",
            "valueString": "Copyright 2014-2022 Michigan Health Information Network Shared Services. Licensed under the Apache License, Version 2.0 (the 'License'); you may not use this file except in compliance with the License. You may obtain a copy of the License at  http://www.apache.org/licenses/LICENSE-2.0.  Unless required by applicable law or agreed to in writing, software distributed under the License is distributed on an 'AS IS' BASIS, WITHOUT WARRANTIES OR CONDITIONS OF ANY KIND, either express or implied. See the License for the specific language governing permissions and limitations under the License."
          }
        ],
        "identifier": [
          {
            "use": "official",
            "value": "bfb788ef-52cd-4728-8ec1-c7e5222ca990"
          }
        ],
        "status": "finished",
        "class": {
          "system": "http://hl7.org/fhir/encounter-class",
          "code": "ambulatory",
          "display": "Ambulatory"
        },
        "type": [
          {
            "coding": [
              {
                "system": "http://snomed.info/sct",
                "code": "185347001",
                "display": "Encounter for problem"
              }
            ]
          }
        ],
        "subject": {
          "reference": "Patient/22922",
          "display": "Pedro Bradley Schneider Jr"
        },
        "participant": [
          {
            "type": [
              {
                "coding": [
                  {
                    "system": "http://hl7.org/fhir/v3/ParticipationType",
                    "code": "ATND",
                    "display": "attender"
                  }
                ]
              }
            ],
            "period": {
              "start": "2023-05-05T00:00:00+00:00",
              "end": "2023-05-05T00:00:00+00:00"
            },
            "individual": {
              "reference": "Practitioner/20217",
              "identifier": {
                "system": "http://hl7.org/fhir/sid/us-npi",
                "value": "9999999400"
              },
              "display": "Matthew Roberson MacIas MD"
            }
          }
        ],
        "appointment": [
          {
            "reference": "Appointment/726421",
            "display": "Appointment-43701"
          }
        ],
        "period": {
          "start": "2023-05-05T00:00:00+00:00",
          "end": "2023-05-05T00:00:00+00:00"
        },
        "reasonCode": [
          {
            "coding": [
              {
                "system": "http://snomed.info/sct",
                "code": "95417003",
                "display": "Influenza (Disorder)"
              }
            ]
          },
          {
            "coding": [
              {
                "system": "http://hl7.org/fhir/sid/icd-10",
                "code": "J10.1",
                "display": "Influenza (Disorder)"
              }
            ]
          }
        ],
        "location": [
          {
            "location": {
              "reference": "Location/18672",
              "display": "Five Lakes Ambulatory Services"
            }
          }
        ],
        "serviceProvider": {
          "reference": "Organization/17086",
          "display": "Five Lakes Ambulatory Services"
        }
      }
    },
    {
      "fullUrl": "https://gw.interop.community/Harrison4Saffron/data/MedicationRequest/2438526",
      "resource": {
        "resourceType": "MedicationRequest",
        "id": "2438526",
        "meta": {
          "versionId": "1",
          "lastUpdated": "2023-04-07T00:59:55+00:00",
          "source": "#nC5Bqn2DO5D5barD"
        },
        "text": {
          "status": "generated",
          "div": "<div xmlns=\"http://www.w3.org/1999/xhtml\">This is a simple narrative with only plain text</div>"
        },
        "extension": [
          {
            "url": "http://mihin.org/extension/copyright",
            "valueString": "Copyright 2014-2022 Michigan Health Information Network Shared Services. Licensed under the Apache License, Version 2.0 (the 'License'); you may not use this file except in compliance with the License. You may obtain a copy of the License at  http://www.apache.org/licenses/LICENSE-2.0.  Unless required by applicable law or agreed to in writing, software distributed under the License is distributed on an 'AS IS' BASIS, WITHOUT WARRANTIES OR CONDITIONS OF ANY KIND, either express or implied. See the License for the specific language governing permissions and limitations under the License."
          },
          {
            "url": "http://build.fhir.org/ig/HL7/davinci-crd/R4/ext-insurance.html",
            "valueReference": {
              "reference": "Coverage/2241494",
              "display": "Pedro Bradley Schneider Jr Coverage"
            }
          }
        ],
        "identifier": [
          {
            "use": "official",
            "system": "http://mihin.org/fhir/sid/elementId",
            "value": "3d911490-cd85-4dce-861a-40ddd2621a5c"
          }
        ],
        "status": "active",
        "intent": "order",
        "medicationCodeableConcept": {
          "coding": [
            {
              "system": "http://www.nlm.nih.gov/research/umls/rxnorm",
              "code": "248656",
              "display": "Azithromycin 500 MG Oral Tablet"
            }
          ]
        },
        "subject": {
          "reference": "Patient/22922",
          "display": "Pedro Bradley Schneider Jr"
        },
        "encounter": {
          "reference": "Encounter/2438561",
          "display": "Genital  Herpes [Ambulatory_Encounter [Encounter]]"
        },
        "authoredOn": "2021-06-09T12:40:00+00:00",
        "requester": {
          "reference": "Practitioner/20988",
          "identifier": {
            "system": "http://hl7.org/fhir/sid/us-npi",
            "value": "9999999821"
          },
          "display": "Georgia Darlene Castaneda MD"
        },
        "reasonCode": [
          {
            "coding": [
              {
                "system": "http://snomed.info/sct",
                "code": "33839006",
                "display": "Genital herpes simplex (disorder)"
              }
            ]
          },
          {
            "coding": [
              {
                "system": "http://hl7.org/fhir/sid/icd-10",
                "code": "A60.9",
                "display": "Genital herpes simplex (disorder)"
              }
            ]
          }
        ],
        "insurance": [
          {
            "reference": "Coverage/2241494",
            "display": "Pedro Bradley Schneider Jr Coverage"
          }
        ]
      }
    },
    {
      "fullUrl": "https://gw.interop.community/Harrison4Saffron/data/Location/18672",
      "resource": {
        "resourceType": "Location",
        "id": "18672",
        "meta": {
          "versionId": "2",
          "lastUpdated": "2023-05-06T04:22:34+00:00",
          "source": "#Oo7NTMeN7k6vtL5D"
        },
        "text": {
          "status": "generated",
          "div": "<div xmlns=\"http://www.w3.org/1999/xhtml\">This is a simple narrative with only plain text</div>"
        },
        "extension": [
          {
            "url": "http://mihin.org/extension/copyright",
            "valueString": "Copyright 2014-2022 Michigan Health Information Network Shared Services. Licensed under the Apache License, Version 2.0 (the 'License'); you may not use this file except in compliance with the License. You may obtain a copy of the License at  http://www.apache.org/licenses/LICENSE-2.0.  Unless required by applicable law or agreed to in writing, software distributed under the License is distributed on an 'AS IS' BASIS, WITHOUT WARRANTIES OR CONDITIONS OF ANY KIND, either express or implied. See the License for the specific language governing permissions and limitations under the License."
          }
        ],
        "identifier": [
          {
            "use": "official",
            "system": "http://www.hl7.org/oid/",
            "value": "1.2.3.4.168"
          }
        ],
        "status": "active",
        "name": "Five Lakes Ambulatory Services",
        "mode": "instance",
        "type": [
          {
            "text": "Clinic/Center"
          }
        ],
        "telecom": [
          {
            "system": "phone",
            "value": "(269) 555-6803",
            "use": "work"
          }
        ],
        "address": {
          "use": "work",
          "type": "physical",
          "line": [
            "458 W Maple Street"
          ],
          "city": "Battle Creek",
          "district": "Harrison",
          "state": "Anywhere",
          "postalCode": "49015"
        },
        "physicalType": {
          "coding": [
            {
              "system": "http://terminology.hl7.org/CodeSystem/location-physical-type",
              "code": "bu",
              "display": "Building"
            }
          ]
        },
        "position": {
          "longitude": -85.19418186597453,
          "latitude": 42.31298181796481
        },
        "managingOrganization": {
          "reference": "Organization/17086",
          "display": "Five Lakes Ambulatory Services"
        },
        "endpoint": [
          {
            "reference": "Endpoint/17477",
            "display": "Five Lakes Ambulatory Services"
          }
        ]
      }
    },
    {
      "fullUrl": "https://gw.interop.community/Harrison4Saffron/data/Immunization/560364",
      "resource": {
        "resourceType": "Immunization",
        "id": "560364",
        "meta": {
          "versionId": "1",
          "lastUpdated": "2023-04-04T19:06:20+00:00",
          "source": "#u8PwlSGFhWYfboXJ"
        },
        "text": {
          "status": "generated",
          "div": "<div xmlns=\"http://www.w3.org/1999/xhtml\">This is a simple narrative with only plain text</div>"
        },
        "extension": [
          {
            "url": "http://mihin.org/extension/copyright",
            "valueString": "Copyright 2014-2022 Michigan Health Information Network Shared Services. Licensed under the Apache License, Version 2.0 (the 'License'); you may not use this file except in compliance with the License. You may obtain a copy of the License at  http://www.apache.org/licenses/LICENSE-2.0.  Unless required by applicable law or agreed to in writing, software distributed under the License is distributed on an 'AS IS' BASIS, WITHOUT WARRANTIES OR CONDITIONS OF ANY KIND, either express or implied. See the License for the specific language governing permissions and limitations under the License."
          }
        ],
        "identifier": [
          {
            "use": "official",
            "system": "http://mihin.org/fhir/sid/elementId",
            "value": "b5d52d3d-b2e1-4d57-9c9e-c1dbdd7de2f7"
          }
        ],
        "status": "completed",
        "vaccineCode": {
          "coding": [
            {
              "system": "http://hl7.org/fhir/sid/cvx",
              "code": "113",
              "display": "Td (adult) preservative free"
            }
          ]
        },
        "patient": {
          "reference": "Patient/22922",
          "display": "Pedro Bradley Schneider Jr"
        },
        "encounter": {
          "reference": "Encounter/560361",
          "display": "Wellness Encounter created 2017/09/10 00:00 for 2019/08/31"
        },
        "recorded": "2019-08-30T14:40:00+00:00",
        "primarySource": true,
        "location": {
          "reference": "Location/18952",
          "display": "Freedom Physicians"
        },
        "performer": [
          {
            "actor": {
              "reference": "Practitioner/20988",
              "identifier": {
                "system": "http://hl7.org/fhir/sid/us-npi",
                "value": "9999999821"
              },
              "display": "Georgia Darlene Castaneda MD"
            }
          }
        ]
      }
    },
    {
      "fullUrl": "https://gw.interop.community/Harrison4Saffron/data/Condition/259995",
      "resource": {
        "resourceType": "Condition",
        "id": "259995",
        "meta": {
          "versionId": "1",
          "lastUpdated": "2023-04-04T09:20:39+00:00",
          "source": "#PjriFnoTnA1iHVmO"
        },
        "text": {
          "status": "generated",
          "div": "<div xmlns=\"http://www.w3.org/1999/xhtml\">This is a simple narrative with only plain text</div>"
        },
        "extension": [
          {
            "url": "http://mihin.org/extension/copyright",
            "valueString": "Copyright 2014-2022 Michigan Health Information Network Shared Services. Licensed under the Apache License, Version 2.0 (the 'License'); you may not use this file except in compliance with the License. You may obtain a copy of the License at  http://www.apache.org/licenses/LICENSE-2.0.  Unless required by applicable law or agreed to in writing, software distributed under the License is distributed on an 'AS IS' BASIS, WITHOUT WARRANTIES OR CONDITIONS OF ANY KIND, either express or implied. See the License for the specific language governing permissions and limitations under the License."
          }
        ],
        "identifier": [
          {
            "use": "official",
            "system": "http://mihin.org/fhir/sid/elementId",
            "value": "acd162e8-0681-49a8-afd5-7f5b2d95e892"
          }
        ],
        "clinicalStatus": {
          "coding": [
            {
              "system": "http://hl7.org/fhir/ValueSet/condition-clinical",
              "code": "active",
              "display": "Active"
            }
          ]
        },
        "verificationStatus": {
          "coding": [
            {
              "system": "http://hl7.org/fhir/ValueSet/condition-ver-status",
              "code": "confirmed",
              "display": "Confirmed"
            }
          ]
        },
        "category": [
          {
            "coding": [
              {
                "system": "http://hl7.org/fhir/ValueSet/condition-category",
                "code": "encounter-diagnosis",
                "display": "Encounter Diagnosis"
              }
            ]
          }
        ],
        "code": {
          "coding": [
            {
              "system": "http://snomed.info/sct",
              "code": "195662009",
              "display": "Acute viral pharyngitis (disorder)"
            },
            {
              "system": "http://hl7.org/fhir/sid/icd-10",
              "code": "J03.90",
              "display": "Acute viral pharyngitis (disorder)"
            }
          ]
        },
        "subject": {
          "reference": "Patient/22922",
          "display": "Pedro Bradley Schneider Jr"
        },
        "encounter": {
          "reference": "Encounter/259993",
          "display": "Sore Throat [Doctor_Visit [Encounter]]"
        },
        "onsetDateTime": "2018-03-13T08:00:00+00:00",
        "recordedDate": "2018-03-13T08:00:00+00:00",
        "asserter": {
          "reference": "Practitioner/20068",
          "identifier": {
            "system": "http://hl7.org/fhir/sid/us-npi",
            "value": "9999999396"
          },
          "display": "Benjamin Leonard Wilkinson MD"
        }
      }
    }
  ]
}