{"resourceType":"Bundle","id":"bundle-eicr-document-zika","meta":{"profile":["http://hl7.org/fhir/us/ecr/StructureDefinition/eicr-document-bundle"]},"identifier":{"system":"urn:ietf:rfc:3986","value":"urn:uuid:2be4b4e4-6df1-4cb2-a947-c70fa0eda54b"},"type":"document","timestamp":"2021-08-02T22:13:23Z","entry":[{"fullUrl":"http://example.org/fhir/Composition/composition-eicr-zika","resource":{"resourceType":"Composition","id":"composition-eicr-zika","meta":{"versionId":"22","lastUpdated":"2021-08-17T03:24:45.575+00:00","source":"#vMaRLlyzDNjGkVuc","profile":["http://hl7.org/fhir/us/ecr/StructureDefinition/eicr-composition"]},"text":{"status":"extensions","div":"<div xmlns=\"http://www.w3.org/1999/xhtml\"><a name=\"Composition_composition-eicr-zika\"> </a><p class=\"res-header-id\"><b>Generated Narrative: Composition composition-eicr-zika</b></p><a name=\"composition-eicr-zika\"> </a><a name=\"hccomposition-eicr-zika\"> </a><a name=\"composition-eicr-zika-en-US\"> </a><div style=\"display: inline-block; background-color: #d9e0e7; padding: 6px; margin: 4px; border: 1px solid #8da1b4; border-radius: 5px; line-height: 60%\"><p style=\"margin-bottom: 0px\">version: 22; Last updated: 2021-08-17 03:24:45+0000; </p><p style=\"margin-bottom: 0px\">Information Source: #vMaRLlyzDNjGkVuc</p><p style=\"margin-bottom: 0px\">Profile: <a href=\"StructureDefinition-eicr-composition.html\">Electronic Initial Case Report Composition</a></p></div><p><b>Composition Version Number</b>: 1</p><p><b>identifier</b>: c03eab8c-11e8-4d0c-ad2a-b385395e27db</p><p><b>status</b>: Final</p><p><b>type</b>: <span title=\"Codes:{http://loinc.org 55751-2}\">Public Health Case Report</span></p><p><b>encounter</b>: <a href=\"Encounter-encounter-eicr-eve-everywoman-outpatient.html\">Ambulatory Office Visit</a></p><p><b>date</b>: 2018-01-02 22:13:23+0000</p><p><b>author</b>: <a href=\"PractitionerRole-practitionerrole-henry-seven.html\">Henry Seven, MD</a></p><p><b>title</b>: Initial Public Health Case Report - Zika Example</p><p><b>custodian</b>: <a href=\"Organization-organization-ecr-salem-medical-center.html\">Salem Medical Center</a></p></div>"},"extension":[{"url":"http://hl7.org/fhir/StructureDefinition/composition-clinicaldocument-versionNumber","valueString":"1"}],"identifier":{"value":"c03eab8c-11e8-4d0c-ad2a-b385395e27db"},"status":"final","type":{"coding":[{"system":"http://loinc.org","code":"55751-2","display":"Public Health Case Report"}]},"subject":{"reference":"Patient/patient-ecr-eve-everywoman","display":"Eve Everywoman"},"encounter":{"reference":"Encounter/encounter-eicr-eve-everywoman-outpatient","display":"Ambulatory Office Visit"},"date":"2018-01-02T22:13:23Z","author":[{"reference":"PractitionerRole/practitionerrole-henry-seven","display":"Henry Seven, MD"}],"title":"Initial Public Health Case Report - Zika Example","custodian":{"reference":"Organization/organization-ecr-salem-medical-center","display":"Salem Medical Center"},"section":[{"title":"Reason for Visit Section","code":{"coding":[{"system":"http://loinc.org","code":"29299-5","display":"Reason for visit Narrative"}]},"text":{"status":"generated","div":"<div xmlns=\"http://www.w3.org/1999/xhtml\">\n                            <table>\n                                <tr>\n                                    <td style=\"font-weight: bold\">title</td>\n                                    <td>\n                                        <div title=\"title\">Reason for Visit Section</div>\n                                    </td>\n                                </tr>\n                                <tr>\n                                    <td style=\"font-weight: bold\">code</td>\n                                    <td>\n                                        <ul style=\"list-style:none; padding-left:0; margin:0 0;\">\n                                            <li>\n                                                <ul style=\"list-style:none; padding-left:0; margin:0 0;\">\n                                                    <li>\n                                                        <div title=\"display\">Reason for visit Narrative</div> ( <div title=\"code\">29299-5</div> ) </li>\n                                                    <li>\n                                                        <div title=\"system\">\n                                                            <a href=\"http://loinc.org\">http://loinc.org</a>\n                                                        </div>\n                                                    </li>\n                                                </ul>\n                                            </li>\n                                        </ul>\n                                    </td>\n                                </tr>\n                                <tr>\n                                    <td colspan=\"2\" lang=\"en-US\" class=\"text-no-entries\">\n                                        <p>Reason for Visit: Bad cough</p>\n                                    </td>\n                                </tr>\n                            </table>\n                        </div>"}},{"title":"Chief Complaint","code":{"coding":[{"system":"http://loinc.org","code":"10154-3","display":"Chief complaint Narrative - Reported"}]},"text":{"status":"generated","div":"<div xmlns=\"http://www.w3.org/1999/xhtml\">\n                            <table>\n                                <tr>\n                                    <td style=\"font-weight: bold\">title</td>\n                                    <td>\n                                        <div title=\"title\">Chief complaint Narrative - Reported</div>\n                                    </td>\n                                </tr>\n                                <tr>\n                                    <td style=\"font-weight: bold\">code</td>\n                                    <td>\n                                        <ul style=\"list-style:none; padding-left:0; margin:0 0;\">\n                                            <li>\n                                                <ul style=\"list-style:none; padding-left:0; margin:0 0;\">\n                                                    <li>\n                                                        <div title=\"display\">Chief complaint Narrative - Reported</div> ( <div title=\"code\">10154-3</div> ) </li>\n                                                    <li>\n                                                        <div title=\"system\">\n                                                            <a href=\"http://loinc.org\">http://loinc.org</a>\n                                                        </div>\n                                                    </li>\n                                                </ul>\n                                            </li>\n                                        </ul>\n                                    </td>\n                                </tr>\n                                <tr>\n                                    <td colspan=\"2\" lang=\"en-US\" class=\"text-no-entries\">\n                                        <p>Chief Complaint: Bad cough</p>\n                                    </td>\n                                </tr>\n                            </table>\n                        </div>"}},{"title":"History of Present Illness Section","code":{"coding":[{"system":"http://loinc.org","code":"10164-2","display":"History of Present illness Narrative"}]},"text":{"status":"generated","div":"<div xmlns=\"http://www.w3.org/1999/xhtml\">\n                            <table>\n                                <tr>\n                                    <td style=\"font-weight: bold\">title</td>\n                                    <td>\n                                        <div title=\"title\">History of Present Illness Section</div>\n                                    </td>\n                                </tr>\n                                <tr>\n                                    <td style=\"font-weight: bold\">code</td>\n                                    <td>\n                                        <ul style=\"list-style:none; padding-left:0; margin:0 0;\">\n                                            <li>\n                                                <ul style=\"list-style:none; padding-left:0; margin:0 0;\">\n                                                    <li>\n                                                        <div title=\"display\">History of Present illness Narrative</div> ( <div title=\"code\">10164-2</div> ) </li>\n                                                    <li>\n                                                        <div title=\"system\">\n                                                            <a href=\"http://loinc.org\">http://loinc.org</a>\n                                                        </div>\n                                                    </li>\n                                                </ul>\n                                            </li>\n                                        </ul>\n                                    </td>\n                                </tr>\n                                <tr>\n                                    <td colspan=\"2\" lang=\"en-US\" class=\"text-no-entries\"> Persistent Cough REPORTED starting on 2018/03/05 <br/> Whooping Respiration not reported <br/> Paroxysms Of Coughing\n                                        REPORTED starting on 2018/03/06 <br/> Post-tussive vomiting not reported </td>\n                                </tr>\n                            </table>\n                        </div>"}},{"title":"Problems Section","code":{"coding":[{"system":"http://loinc.org","code":"11450-4","display":"Problem list - Reported"}]},"text":{"status":"generated","div":"<div xmlns=\"http://www.w3.org/1999/xhtml\">\n                            <table>\n                                <tr>\n                                    <td style=\"font-weight: bold\">title</td>\n                                    <td>\n                                        <div title=\"title\">Problems Section</div>\n                                    </td>\n                                </tr>\n                                <tr>\n                                    <td style=\"font-weight: bold\">code</td>\n                                    <td>\n                                        <ul style=\"list-style:none; padding-left:0; margin:0 0;\">\n                                            <li>\n                                                <ul style=\"list-style:none; padding-left:0; margin:0 0;\">\n                                                    <li>\n                                                        <div title=\"display\">Problem list - Reported</div> ( <div title=\"code\">11450-4</div> ) </li>\n                                                    <li>\n                                                        <div title=\"system\">\n                                                            <a href=\"http://loinc.org\">http://loinc.org</a>\n                                                        </div>\n                                                    </li>\n                                                </ul>\n                                            </li>\n                                        </ul>\n                                    </td>\n                                </tr>\n                                <tr>\n                                    <td style=\"font-weight: bold\">entry</td>\n                                    <td>\n                                        <a href=\"Condition-condition-eicr-eve-everywoman-common-cold.html\">Common cold (disorder)</a>\n                                        <table>\n                                            <tr>\n                                                <td style=\"font-weight: bold\">id</td>\n                                                <td>\n                                                    <div title=\"id\">condition-eicr-eve-everywoman-common-cold</div>\n                                                </td>\n                                            </tr>\n                                            <tr>\n                                                <td style=\"font-weight: bold\">meta</td>\n                                                <td>\n                                                    <table>\n                                                        <tr>\n                                                            <td style=\"font-weight: bold\">versionId</td>\n                                                            <td>\n                                                                <div title=\"versionId\">15</div>\n                                                            </td>\n                                                        </tr>\n                                                        <tr>\n                                                            <td style=\"font-weight: bold\">lastUpdated</td>\n                                                            <td>\n                                                                <div title=\"lastUpdated\">2019-10-10T21:21:49.000-04:00</div>\n                                                            </td>\n                                                        </tr>\n                                                        <tr>\n                                                            <td style=\"font-weight: bold\">profile</td>\n                                                            <td>\n                                                                <div title=\"profile\">http://hl7.org/fhir/us/ecr/StructureDefinition/us-ph-condition</div>\n                                                            </td>\n                                                        </tr>\n                                                    </table>\n                                                </td>\n                                            </tr>\n                                            <tr>\n                                                <td style=\"font-weight: bold\">category</td>\n                                                <td>\n                                                    <ul style=\"list-style:none; padding-left:0; margin:0 0;\">\n                                                        <li>\n                                                            <ul style=\"list-style:none; padding-left:0; margin:0 0;\">\n                                                                <li>\n                                                                    <div title=\"display\">Problem List Item</div> ( <div title=\"code\">problem-list-item</div> ) </li>\n                                                                <li>\n                                                                    <div title=\"system\">\n                                                                        <a href=\"http://terminology.hl7.org/CodeSystem/condition-category\">http://terminology.hl7.org/CodeSystem/condition-category</a>\n                                                                    </div>\n                                                                </li>\n                                                            </ul>\n                                                        </li>\n                                                    </ul>\n                                                </td>\n                                            </tr>\n                                            <tr>\n                                                <td style=\"font-weight: bold\">code</td>\n                                                <td>\n                                                    <ul style=\"list-style:none; padding-left:0; margin:0 0;\">\n                                                        <li>\n                                                            <ul style=\"list-style:none; padding-left:0; margin:0 0;\">\n                                                                <li>\n                                                                    <div title=\"display\">Common cold (disorder)</div> ( <div title=\"code\">82272006</div> ) </li>\n                                                                <li>\n                                                                    <div title=\"system\">\n                                                                        <a href=\"http://snomed.info/sct\">http://snomed.info/sct</a>\n                                                                    </div>\n                                                                </li>\n                                                            </ul>\n                                                        </li>\n                                                    </ul>\n                                                </td>\n                                            </tr>\n                                            <tr>\n                                                <td style=\"font-weight: bold\">subject</td>\n                                                <td>\n                                                    <ul style=\"list-style:none; padding-left:0; margin:0 0;\">\n                                                        <li/>\n                                                        <li>\n                                                            <a href=\"Patient-patient-ecr-eve-everywoman.html\">Eve Everywoman</a>\n                                                        </li>\n                                                    </ul>\n                                                </td>\n                                            </tr>\n                                            <tr>\n                                                <td style=\"font-weight: bold\">onsetDateTime</td>\n                                                <td>\n                                                    <div title=\"onsetDateTime\">2017-09-23</div>\n                                                </td>\n                                            </tr>\n                                            <tr>\n                                                <td style=\"font-weight: bold\">asserter</td>\n                                                <td>\n                                                    <ul style=\"list-style:none; padding-left:0; margin:0 0;\">\n                                                        <li/>\n                                                        <li>\n                                                            <a href=\"Practitioner-practitioner-us-core-henry-seven.html\">Henry Seven, MD</a>\n                                                        </li>\n                                                    </ul>\n                                                </td>\n                                            </tr>\n                                        </table>\n                                    </td>\n                                </tr>\n                            </table>\n                        </div>"},"entry":[{"reference":"Condition/condition-eicr-eve-everywoman-common-cold","display":"Common cold (disorder)"}]},{"title":"Medications Administered Section","code":{"coding":[{"system":"http://loinc.org","code":"29549-3","display":"Medication administered Narrative"}]},"text":{"status":"generated","div":"<div xmlns=\"http://www.w3.org/1999/xhtml\">\n                            <table>\n                                <tr>\n                                    <td style=\"font-weight: bold\">title</td>\n                                    <td>\n                                        <div title=\"title\">Medications Administered Section</div>\n                                    </td>\n                                </tr>\n                                <tr>\n                                    <td style=\"font-weight: bold\">code</td>\n                                    <td>\n                                        <ul style=\"list-style:none; padding-left:0; margin:0 0;\">\n                                            <li>\n                                                <ul style=\"list-style:none; padding-left:0; margin:0 0;\">\n                                                    <li>\n                                                        <div title=\"display\">Medication administered Narrative</div> ( <div title=\"code\">29549-3</div> ) </li>\n                                                    <li>\n                                                        <div title=\"system\">\n                                                            <a href=\"http://loinc.org\">http://loinc.org</a>\n                                                        </div>\n                                                    </li>\n                                                </ul>\n                                            </li>\n                                        </ul>\n                                    </td>\n                                </tr>\n                                <tr>\n                                    <td style=\"font-weight: bold\">entry</td>\n                                    <td>\n                                        <a href=\"MedicationAdministration-medicationadministration-eve-everywoman-azithromycin.html\">Azithromycin 500 MG Oral Tablet</a>\n                                        <table>\n                                            <tr>\n                                                <td style=\"font-weight: bold\">id</td>\n                                                <td>\n                                                    <div title=\"id\">medicationadministration-eve-everywoman-azithromycin</div>\n                                                </td>\n                                            </tr>\n                                            <tr>\n                                                <td style=\"font-weight: bold\">meta</td>\n                                                <td>\n                                                    <table>\n                                                        <tr>\n                                                            <td style=\"font-weight: bold\">versionId</td>\n                                                            <td>\n                                                                <div title=\"versionId\">10</div>\n                                                            </td>\n                                                        </tr>\n                                                        <tr>\n                                                            <td style=\"font-weight: bold\">lastUpdated</td>\n                                                            <td>\n                                                                <div title=\"lastUpdated\">2019-10-05T03:11:22.000-04:00</div>\n                                                            </td>\n                                                        </tr>\n                                                    </table>\n                                                </td>\n                                            </tr>\n                                            <tr>\n                                                <td style=\"font-weight: bold\">status</td>\n                                                <td>\n                                                    <div title=\"status\">completed</div>\n                                                </td>\n                                            </tr>\n                                            <tr>\n                                                <td style=\"font-weight: bold\">medicationCodeableConcept</td>\n                                                <td>\n                                                    <ul style=\"list-style:none; padding-left:0; margin:0 0;\">\n                                                        <li>\n                                                            <div title=\"text\">Azithromycin 500 MG Oral Tablet</div>\n                                                        </li>\n                                                        <li>\n                                                            <ul style=\"list-style:none; padding-left:0; margin:0 0;\">\n                                                                <li>\n                                                                    <div title=\"display\">Azithromycin 500 MG Oral Tablet</div> ( <div title=\"code\">248656</div> ) </li>\n                                                                <li>\n                                                                    <div title=\"system\">\n                                                                        <a href=\"http://www.nlm.nih.gov/research/umls/rxnorm\">http://www.nlm.nih.gov/research/umls/rxnorm</a>\n                                                                    </div>\n                                                                </li>\n                                                            </ul>\n                                                        </li>\n                                                    </ul>\n                                                </td>\n                                            </tr>\n                                            <tr>\n                                                <td style=\"font-weight: bold\">subject</td>\n                                                <td>\n                                                    <ul style=\"list-style:none; padding-left:0; margin:0 0;\">\n                                                        <li/>\n                                                        <li>\n                                                            <a href=\"Patient-patient-ecr-eve-everywoman.html\">Eve Everywoman</a>\n                                                        </li>\n                                                    </ul>\n                                                </td>\n                                            </tr>\n                                            <tr>\n                                                <td style=\"font-weight: bold\">effectivePeriod</td>\n                                                <td>\n                                                    <table>\n                                                        <tr>\n                                                            <td style=\"font-weight: bold\">start</td>\n                                                            <td>\n                                                                <div title=\"start\">2018-03-07</div>\n                                                            </td>\n                                                        </tr>\n                                                        <tr>\n                                                            <td style=\"font-weight: bold\">end</td>\n                                                            <td>\n                                                                <div title=\"end\">2018-03-07</div>\n                                                            </td>\n                                                        </tr>\n                                                    </table>\n                                                </td>\n                                            </tr>\n                                            <tr>\n                                                <td style=\"font-weight: bold\">dosage</td>\n                                                <td>\n                                                    <table>\n                                                        <tr>\n                                                            <td style=\"font-weight: bold\">route</td>\n                                                            <td>\n                                                                <ul style=\"list-style:none; padding-left:0; margin:0 0;\">\n                                                                    <li>\n                                                                        <ul style=\"list-style:none; padding-left:0; margin:0 0;\">\n                                                                            <li>\n                                                                                <div title=\"display\">Oral Route</div> ( <div title=\"code\">26643006</div> ) </li>\n                                                                            <li>\n                                                                                <div title=\"system\">\n                                                                                    <a href=\"http://snomed.info/sct\">http://snomed.info/sct</a>\n                                                                                </div>\n                                                                            </li>\n                                                                        </ul>\n                                                                    </li>\n                                                                </ul>\n                                                            </td>\n                                                        </tr>\n                                                        <tr>\n                                                            <td style=\"font-weight: bold\">method</td>\n                                                            <td>\n                                                                <ul style=\"list-style:none; padding-left:0; margin:0 0;\">\n                                                                    <li>\n                                                                        <ul style=\"list-style:none; padding-left:0; margin:0 0;\">\n                                                                            <li>\n                                                                                <div title=\"display\">Swallow - dosing instruction imperative (qualifier value)</div> ( <div title=\"code\">421521009</div> ) </li>\n                                                                            <li>\n                                                                                <div title=\"system\">\n                                                                                    <a href=\"http://snomed.info/sct\">http://snomed.info/sct</a>\n                                                                                </div>\n                                                                            </li>\n                                                                        </ul>\n                                                                    </li>\n                                                                </ul>\n                                                            </td>\n                                                        </tr>\n                                                        <tr>\n                                                            <td style=\"font-weight: bold\">dose</td>\n                                                            <td>\n                                                                <table>\n                                                                    <tr>\n                                                                        <td style=\"font-weight: bold\">value</td>\n                                                                        <td>\n                                                                            <div title=\"value\">2</div>\n                                                                        </td>\n                                                                    </tr>\n                                                                    <tr>\n                                                                        <td style=\"font-weight: bold\">unit</td>\n                                                                        <td>\n                                                                            <div title=\"unit\">TAB</div>\n                                                                        </td>\n                                                                    </tr>\n                                                                    <tr>\n                                                                        <td style=\"font-weight: bold\">system</td>\n                                                                        <td>\n                                                                            <div title=\"system\">\n                                                                                <a href=\"http://terminology.hl7.org/CodeSystem/v3-orderableDrugForm\">http://terminology.hl7.org/CodeSystem/v3-orderableDrugForm</a>\n                                                                            </div>\n                                                                        </td>\n                                                                    </tr>\n                                                                    <tr>\n                                                                        <td style=\"font-weight: bold\">code</td>\n                                                                        <td>\n                                                                            <div title=\"code\">TAB</div>\n                                                                        </td>\n                                                                    </tr>\n                                                                </table>\n                                                            </td>\n                                                        </tr>\n                                                    </table>\n                                                </td>\n                                            </tr>\n                                        </table>\n                                    </td>\n                                </tr>\n                            </table>\n                        </div>"},"entry":[{"reference":"MedicationAdministration/medicationadministration-eve-everywoman-azithromycin","display":"Azithromycin 500 MG Oral Tablet"}]},{"title":"Admission Medications Section","code":{"coding":[{"system":"http://loinc.org","code":"42346-7","display":"Medications on admission (narrative)"}]},"text":{"status":"generated","div":"<div xmlns=\"http://www.w3.org/1999/xhtml\">\n                            <table>\n                                <tr>\n                                    <td style=\"font-weight: bold\">title</td>\n                                    <td>\n                                        <div title=\"title\">Admission Medications Section</div>\n                                    </td>\n                                </tr>\n                                <tr>\n                                    <td style=\"font-weight: bold\">code</td>\n                                    <td>\n                                        <ul style=\"list-style:none; padding-left:0; margin:0 0;\">\n                                            <li>\n                                                <ul style=\"list-style:none; padding-left:0; margin:0 0;\">\n                                                    <li>\n                                                        <div title=\"display\">Medications on admission (narrative)</div> ( <div title=\"code\">42346-7</div> ) </li>\n                                                    <li>\n                                                        <div title=\"system\">\n                                                            <a href=\"http://loinc.org\">http://loinc.org</a>\n                                                        </div>\n                                                    </li>\n                                                </ul>\n                                            </li>\n                                        </ul>\n                                    </td>\n                                </tr>\n                                <tr>\n                                    <td style=\"font-weight: bold\">entry</td>\n                                    <td>\n                                        <a href=\"MedicationAdministration-medicationadministration-eve-everywoman-naloxone-response.html\">1 ML naloxone hydrochloride 0.4 MG/ML Injection</a>\n                                    </td>\n                                </tr>\n                            </table>\n                        </div>"},"entry":[{"reference":"MedicationAdministration/medicationadministration-eve-everywoman-naloxone-response","display":"1 ML naloxone hydrochloride 0.4 MG/ML Injection"}]},{"title":"Medications Section","code":{"coding":[{"system":"http://loinc.org","code":"10160-0","display":"History of Medication use Narrative"}]},"text":{"status":"generated","div":"<div xmlns=\"http://www.w3.org/1999/xhtml\">\n                            <table>\n                                <tr>\n                                    <td style=\"font-weight: bold\">title</td>\n                                    <td>\n                                        <div title=\"title\">Medications Section</div>\n                                    </td>\n                                </tr>\n                                <tr>\n                                    <td style=\"font-weight: bold\">code</td>\n                                    <td>\n                                        <ul style=\"list-style:none; padding-left:0; margin:0 0;\">\n                                            <li>\n                                                <ul style=\"list-style:none; padding-left:0; margin:0 0;\">\n                                                    <li>\n                                                        <div title=\"display\">History of Medication use Narrative</div> ( <div title=\"code\">10160-0</div> ) </li>\n                                                    <li>\n                                                        <div title=\"system\">\n                                                            <a href=\"http://loinc.org\">http://loinc.org</a>\n                                                        </div>\n                                                    </li>\n                                                </ul>\n                                            </li>\n                                        </ul>\n                                    </td>\n                                </tr>\n                                <tr>\n                                    <td style=\"font-weight: bold\">entry</td>\n                                    <td>\n                                        <a href=\"MedicationAdministration-medicationadministration-eve-everywoman-azithromycin.html\">Azithromycin 500 MG Oral Tablet</a>\n                                    </td>\n                                </tr>\n                            </table>\n                        </div>"},"entry":[{"reference":"MedicationAdministration/medicationadministration-eve-everywoman-azithromycin","display":"Azithromycin 500 MG Oral Tablet"}]},{"title":"Results Section","code":{"coding":[{"system":"http://loinc.org","code":"30954-2","display":"Relevant diagnostic tests/laboratory data Narrative"}]},"text":{"status":"generated","div":"<div xmlns=\"http://www.w3.org/1999/xhtml\">\n                            <table>\n                                <tr>\n                                    <td style=\"font-weight: bold\">title</td>\n                                    <td>\n                                        <div title=\"title\">Results Section</div>\n                                    </td>\n                                </tr>\n                                <tr>\n                                    <td style=\"font-weight: bold\">code</td>\n                                    <td>\n                                        <ul style=\"list-style:none; padding-left:0; margin:0 0;\">\n                                            <li>\n                                                <ul style=\"list-style:none; padding-left:0; margin:0 0;\">\n                                                    <li>\n                                                        <div title=\"display\">Relevant Dx tests/lab data</div> ( <div title=\"code\">30954-2</div> ) </li>\n                                                    <li>\n                                                        <div title=\"system\">\n                                                            <a href=\"http://loinc.org\">http://loinc.org</a>\n                                                        </div>\n                                                    </li>\n                                                </ul>\n                                            </li>\n                                        </ul>\n                                    </td>\n                                </tr>\n                                <tr>\n                                    <td style=\"font-weight: bold\">entry</td>\n                                    <td>\n                                        <a href=\"Observation-observation-us-ph-lab-result-eve-everywoman-lymphocytes.html\">Lymphocytes [#/​volume] in Blood by Automated count - Interpretation: High</a>\n                                        <table>\n                                            <tr>\n                                                <td style=\"font-weight: bold\">id</td>\n                                                <td>\n                                                    <div title=\"id\">observation-us-ph-lab-result-eve-everywoman-lymphocytes</div>\n                                                </td>\n                                            </tr>\n                                            <tr>\n                                                <td style=\"font-weight: bold\">meta</td>\n                                                <td>\n                                                    <table>\n                                                        <tr>\n                                                            <td style=\"font-weight: bold\">versionId</td>\n                                                            <td>\n                                                                <div title=\"versionId\">10</div>\n                                                            </td>\n                                                        </tr>\n                                                        <tr>\n                                                            <td style=\"font-weight: bold\">lastUpdated</td>\n                                                            <td>\n                                                                <div title=\"lastUpdated\">2019-10-05T02:50:13.000-04:00</div>\n                                                            </td>\n                                                        </tr>\n                                                        <tr>\n                                                            <td style=\"font-weight: bold\">profile</td>\n                                                            <td>\n                                                                <div title=\"profile\">http://hl7.org/fhir/us/ecr/StructureDefinition/us-ph-lab-result-observation</div>\n                                                            </td>\n                                                        </tr>\n                                                    </table>\n                                                </td>\n                                            </tr>\n                                            <tr>\n                                                <td style=\"font-weight: bold\">status</td>\n                                                <td>\n                                                    <div title=\"status\">final</div>\n                                                </td>\n                                            </tr>\n                                            <tr>\n                                                <td style=\"font-weight: bold\">category</td>\n                                                <td>\n                                                    <ul style=\"list-style:none; padding-left:0; margin:0 0;\">\n                                                        <li>\n                                                            <div title=\"text\">Laboratory</div>\n                                                        </li>\n                                                        <li>\n                                                            <ul style=\"list-style:none; padding-left:0; margin:0 0;\">\n                                                                <li>\n                                                                    <div title=\"display\">Laboratory</div> ( <div title=\"code\">laboratory</div> ) </li>\n                                                                <li>\n                                                                    <div title=\"system\">\n                                                                        <a href=\"http://terminology.hl7.org/CodeSystem/observation-category\">http://terminology.hl7.org/CodeSystem/observation-category</a>\n                                                                    </div>\n                                                                </li>\n                                                            </ul>\n                                                        </li>\n                                                    </ul>\n                                                </td>\n                                            </tr>\n                                            <tr>\n                                                <td style=\"font-weight: bold\">code</td>\n                                                <td>\n                                                    <ul style=\"list-style:none; padding-left:0; margin:0 0;\">\n                                                        <li>\n                                                            <ul style=\"list-style:none; padding-left:0; margin:0 0;\">\n                                                                <li>\n                                                                    <div title=\"display\">Lymphocytes [#/volume] in Blood by Automated count</div> ( <div title=\"code\">731-0</div> ) </li>\n                                                                <li>\n                                                                    <div title=\"system\">\n                                                                        <a href=\"http://loinc.org\">http://loinc.org</a>\n                                                                    </div>\n                                                                </li>\n                                                            </ul>\n                                                        </li>\n                                                    </ul>\n                                                </td>\n                                            </tr>\n                                            <tr>\n                                                <td style=\"font-weight: bold\">subject</td>\n                                                <td>\n                                                    <ul style=\"list-style:none; padding-left:0; margin:0 0;\">\n                                                        <li/>\n                                                        <li>\n                                                            <a href=\"Patient-patient-ecr-eve-everywoman.html\">Eve Everywoman</a>\n                                                        </li>\n                                                    </ul>\n                                                </td>\n                                            </tr>\n                                            <tr>\n                                                <td style=\"font-weight: bold\">effectiveDateTime</td>\n                                                <td>\n                                                    <div title=\"effectiveDateTime\">2018-03-07</div>\n                                                </td>\n                                            </tr>\n                                            <tr>\n                                                <td style=\"font-weight: bold\">valueQuantity</td>\n                                                <td>\n                                                    <ul style=\"list-style:none; padding-left:0; margin:0 0;\">\n                                                        <li>\n                                                            <div title=\"value\">5.2</div>\n                                                        </li>\n                                                        <li>\n                                                            <div title=\"system\">\n                                                                <a href=\"http://unitsofmeasure.org\">http://unitsofmeasure.org</a>\n                                                            </div>\n                                                        </li>\n                                                        <li>\n                                                            <div title=\"code\">10*3/uL</div>\n                                                        </li>\n                                                    </ul>\n                                                </td>\n                                            </tr>\n                                            <tr>\n                                                <td style=\"font-weight: bold\">interpretation</td>\n                                                <td>\n                                                    <ul style=\"list-style:none; padding-left:0; margin:0 0;\">\n                                                        <li>\n                                                            <ul style=\"list-style:none; padding-left:0; margin:0 0;\">\n                                                                <li>\n                                                                    <div title=\"display\">High</div> ( <div title=\"code\">H</div> ) </li>\n                                                                <li>\n                                                                    <div title=\"system\">\n                                                                        <a href=\"http://terminology.hl7.org/CodeSystem/v3-ObservationInterpretation\">http://terminology.hl7.org/CodeSystem/v3-ObservationInterpretation</a>\n                                                                    </div>\n                                                                </li>\n                                                            </ul>\n                                                        </li>\n                                                    </ul>\n                                                </td>\n                                            </tr>\n                                            <tr>\n                                                <td style=\"font-weight: bold\">referenceRange</td>\n                                                <td>\n                                                    <table>\n                                                        <tr>\n                                                            <td style=\"font-weight: bold\">low</td>\n                                                            <td>\n                                                                <table>\n                                                                    <tr>\n                                                                        <td style=\"font-weight: bold\">value</td>\n                                                                        <td>\n                                                                            <div title=\"value\">1</div>\n                                                                        </td>\n                                                                    </tr>\n                                                                    <tr>\n                                                                        <td style=\"font-weight: bold\">system</td>\n                                                                        <td>\n                                                                            <div title=\"system\">\n                                                                                <a href=\"http://unitsofmeasure.org\">http://unitsofmeasure.org</a>\n                                                                            </div>\n                                                                        </td>\n                                                                    </tr>\n                                                                    <tr>\n                                                                        <td style=\"font-weight: bold\">code</td>\n                                                                        <td>\n                                                                            <div title=\"code\">10*3/uL</div>\n                                                                        </td>\n                                                                    </tr>\n                                                                </table>\n                                                            </td>\n                                                        </tr>\n                                                        <tr>\n                                                            <td style=\"font-weight: bold\">high</td>\n                                                            <td>\n                                                                <table>\n                                                                    <tr>\n                                                                        <td style=\"font-weight: bold\">value</td>\n                                                                        <td>\n                                                                            <div title=\"value\">4.8</div>\n                                                                        </td>\n                                                                    </tr>\n                                                                    <tr>\n                                                                        <td style=\"font-weight: bold\">system</td>\n                                                                        <td>\n                                                                            <div title=\"system\">\n                                                                                <a href=\"http://unitsofmeasure.org\">http://unitsofmeasure.org</a>\n                                                                            </div>\n                                                                        </td>\n                                                                    </tr>\n                                                                    <tr>\n                                                                        <td style=\"font-weight: bold\">code</td>\n                                                                        <td>\n                                                                            <div title=\"code\">10*3/uL</div>\n                                                                        </td>\n                                                                    </tr>\n                                                                </table>\n                                                            </td>\n                                                        </tr>\n                                                    </table>\n                                                </td>\n                                            </tr>\n                                        </table>\n                                    </td>\n                                </tr>\n                            </table>\n                        </div>"},"entry":[{"reference":"Observation/observation-us-ph-lab-result-eve-everywoman-lymphocytes","display":"Lymphocytes [#/​volume] in Blood by Automated count - Interpretation: High"}]},{"title":"Plan of Treatment Section","code":{"coding":[{"system":"http://loinc.org","code":"18776-5","display":"Plan of care note"}]},"text":{"status":"generated","div":"<div xmlns=\"http://www.w3.org/1999/xhtml\">\n                            <table>\n                                <tr>\n                                    <td style=\"font-weight: bold\">title</td>\n                                    <td>\n                                        <div title=\"title\">Plan of Treatment Section</div>\n                                    </td>\n                                </tr>\n                                <tr>\n                                    <td style=\"font-weight: bold\">code</td>\n                                    <td>\n                                        <ul style=\"list-style:none; padding-left:0; margin:0 0;\">\n                                            <li>\n                                                <ul style=\"list-style:none; padding-left:0; margin:0 0;\">\n                                                    <li>\n                                                        <div title=\"display\">Plan of care note</div> ( <div title=\"code\">18776-5</div> ) </li>\n                                                    <li>\n                                                        <div title=\"system\">\n                                                            <a href=\"http://loinc.org\">http://loinc.org</a>\n                                                        </div>\n                                                    </li>\n                                                </ul>\n                                            </li>\n                                        </ul>\n                                    </td>\n                                </tr>\n                                <tr>\n                                    <td style=\"font-weight: bold\">entry</td>\n                                    <td>\n                                        <ul style=\"list-style:none; padding-left:0; margin:0 0;\">\n                                            <li>\n                                                <b>Trigger code</b>\n                                            </li>\n                                            <li>Trigger Code: </li>\n                                            <li>Trigger Code Display: </li>\n                                            <li>Trigger Code System: </li>\n                                            <li>Trigger Code Value Set: urn:oid:2.16.840.1.114222.4.11.7508</li>\n                                            <li>Trigger Code Value Set Version: 19/05/2018</li>\n                                        </ul>\n                                        <a href=\"ServiceRequest-servicerequest-eicr-zika.html\">Request for Zika virus envelope (E) gene [Presence] in Serum by Probe and target amplification method</a>\n                                        <table>\n                                            <tr>\n                                                <td style=\"font-weight: bold\">id</td>\n                                                <td>\n                                                    <div title=\"id\">servicerequest-eicr-zika</div>\n                                                </td>\n                                            </tr>\n                                            <tr>\n                                                <td style=\"font-weight: bold\">meta</td>\n                                                <td>\n                                                    <table>\n                                                        <tr>\n                                                            <td style=\"font-weight: bold\">versionId</td>\n                                                            <td>\n                                                                <div title=\"versionId\">9</div>\n                                                            </td>\n                                                        </tr>\n                                                        <tr>\n                                                            <td style=\"font-weight: bold\">lastUpdated</td>\n                                                            <td>\n                                                                <div title=\"lastUpdated\">2019-10-23T13:56:36.000-04:00</div>\n                                                            </td>\n                                                        </tr>\n                                                        <tr>\n                                                            <td style=\"font-weight: bold\">profile</td>\n                                                            <td>\n                                                                <div title=\"profile\">http://hl7.org/fhir/us/ecr/StructureDefinition/eicr-servicerequest</div>\n                                                            </td>\n                                                        </tr>\n                                                    </table>\n                                                </td>\n                                            </tr>\n                                            <tr>\n                                                <td style=\"font-weight: bold\">status</td>\n                                                <td>\n                                                    <div title=\"status\">completed</div>\n                                                </td>\n                                            </tr>\n                                            <tr>\n                                                <td style=\"font-weight: bold\">intent</td>\n                                                <td>\n                                                    <div title=\"intent\">order</div>\n                                                </td>\n                                            </tr>\n                                            <tr>\n                                                <td style=\"font-weight: bold\">category</td>\n                                                <td>\n                                                    <ul style=\"list-style:none; padding-left:0; margin:0 0;\">\n                                                        <li>\n                                                            <div title=\"text\">Diagnostics Procedure</div>\n                                                        </li>\n                                                        <li>\n                                                            <ul style=\"list-style:none; padding-left:0; margin:0 0;\">\n                                                                <li>\n                                                                    <div title=\"display\">Diagnostic procedure (procedure)</div> ( <div title=\"code\">103693007</div> ) </li>\n                                                                <li>\n                                                                    <div title=\"system\">\n                                                                        <a href=\"http://snomed.info/sct\">http://snomed.info/sct</a>\n                                                                    </div>\n                                                                </li>\n                                                            </ul>\n                                                        </li>\n                                                    </ul>\n                                                </td>\n                                            </tr>\n                                            <tr>\n                                                <td style=\"font-weight: bold\">code</td>\n                                                <td>\n                                                    <ul style=\"list-style:none; padding-left:0; margin:0 0;\">\n                                                        <li>\n                                                            <div title=\"text\">Zika RT-PCR</div>\n                                                        </li>\n                                                        <li>\n                                                            <ul style=\"list-style:none; padding-left:0; margin:0 0;\">\n                                                                <li>\n                                                                    <div title=\"display\">Zika virus envelope E gene [Presence] in Serum by NAA with probe detection</div> ( <div title=\"code\">80825-3</div> ) </li>\n                                                                <li>\n                                                                    <div title=\"system\">\n                                                                        <a href=\"http://loinc.org\">http://loinc.org</a>\n                                                                    </div>\n                                                                </li>\n                                                            </ul>\n                                                        </li>\n                                                    </ul>\n                                                </td>\n                                            </tr>\n                                            <tr>\n                                                <td style=\"font-weight: bold\">subject</td>\n                                                <td>\n                                                    <ul style=\"list-style:none; padding-left:0; margin:0 0;\">\n                                                        <li/>\n                                                        <li>\n                                                            <a href=\"Patient-patient-ecr-eve-everywoman.html\">Eve Everywoman</a>\n                                                        </li>\n                                                    </ul>\n                                                </td>\n                                            </tr>\n                                            <tr>\n                                                <td style=\"font-weight: bold\">performer</td>\n                                                <td>\n                                                    <ul style=\"list-style:none; padding-left:0; margin:0 0;\">\n                                                        <li/>\n                                                        <li>\n                                                            <a href=\"Organization-organization-ecr-acme-laboratory.html\">Acme Labs</a>\n                                                        </li>\n                                                    </ul>\n                                                </td>\n                                            </tr>\n                                        </table>\n                                    </td>\n                                </tr>\n                            </table>\n                        </div>"},"entry":[{"extension":[{"url":"http://hl7.org/fhir/us/ecr/StructureDefinition/eicr-trigger-code-flag-extension","extension":[{"url":"triggerCodeValueSet","valueOid":"urn:oid:2.16.840.1.114222.4.11.7508"},{"url":"triggerCodeValueSetVersion","valueString":"19/05/2018"},{"url":"triggerCode","valueCoding":{"system":"http://loinc.org","code":"80825-3","display":"Zika virus envelope E gene [Presence] in Serum by NAA with probe detection"}}]}],"reference":"ServiceRequest/servicerequest-eicr-zika","display":"Request for Zika virus envelope (E) gene [Presence] in Serum by Probe and target amplification method"}]},{"title":"Immunizations Section","code":{"coding":[{"system":"http://loinc.org","code":"11369-6","display":"History of Immunization Narrative"}]},"text":{"status":"generated","div":"<div xmlns=\"http://www.w3.org/1999/xhtml\">\n                            <table>\n                                <tr>\n                                    <td style=\"font-weight: bold\">title</td>\n                                    <td>\n                                        <div title=\"title\">Immunizations Section</div>\n                                    </td>\n                                </tr>\n                                <tr>\n                                    <td style=\"font-weight: bold\">code</td>\n                                    <td>\n                                        <ul style=\"list-style:none; padding-left:0; margin:0 0;\">\n                                            <li>\n                                                <ul style=\"list-style:none; padding-left:0; margin:0 0;\">\n                                                    <li>\n                                                        <div title=\"display\">History of Immunization Narrative</div> ( <div title=\"code\">11369-6</div> ) </li>\n                                                    <li>\n                                                        <div title=\"system\">\n                                                            <a href=\"http://loinc.org\">http://loinc.org</a>\n                                                        </div>\n                                                    </li>\n                                                </ul>\n                                            </li>\n                                        </ul>\n                                    </td>\n                                </tr>\n                                <tr>\n                                    <td style=\"font-weight: bold\">entry</td>\n                                    <td>\n                                        <a href=\"Immunization-immunization-ecr-pneumo.html\">pneumococcal polysaccharide vaccine</a>\n                                    </td>\n                                </tr>\n                                <tr>\n                                    <td style=\"font-weight: bold\">entry</td>\n                                    <td>\n                                        <a href=\"Observation-observation-vaccine-credential-assertion-eve-everywoman.html\">Vaccine Credential Patient Assertion Observation Example</a>\n                                    </td>\n                                </tr>\n                            </table>\n                        </div>"},"entry":[{"reference":"Immunization/immunization-ecr-pneumo","display":"pneumococcal polysaccharide vaccine"},{"reference":"Observation/observation-vaccine-credential-assertion-eve-everywoman","display":"Vaccine Credential Patient Assertion Observation Example"}]},{"title":"Procedures Section","code":{"coding":[{"system":"http://loinc.org","code":"47519-4","display":"History of Procedures Document"}]},"text":{"status":"generated","div":"<div xmlns=\"http://www.w3.org/1999/xhtml\">\n                            <table>\n                                <tr>\n                                    <td style=\"font-weight: bold\">title</td>\n                                    <td>\n                                        <div title=\"title\">Procedures Section</div>\n                                    </td>\n                                </tr>\n                                <tr>\n                                    <td style=\"font-weight: bold\">code</td>\n                                    <td>\n                                        <ul style=\"list-style:none; padding-left:0; margin:0 0;\">\n                                            <li>\n                                                <ul style=\"list-style:none; padding-left:0; margin:0 0;\">\n                                                    <li>\n                                                        <div title=\"display\">History of Procedures Document</div> ( <div title=\"code\">47519-4</div> ) </li>\n                                                    <li>\n                                                        <div title=\"system\">\n                                                            <a href=\"http://loinc.org\">http://loinc.org</a>\n                                                        </div>\n                                                    </li>\n                                                </ul>\n                                            </li>\n                                        </ul>\n                                    </td>\n                                </tr>\n                                <tr>\n                                    <td style=\"font-weight: bold\">entry</td>\n                                    <td>\n                                        <a href=\"Procedure-us-ph-procedure-ecmo.html\">Extracorporeal membrane oxygenation (procedure)</a>\n                                    </td>\n                                </tr>\n                            </table>\n                        </div>"},"entry":[{"reference":"Procedure/us-ph-procedure-ecmo","display":"Extracorporeal membrane oxygenation (procedure)"}]},{"title":"Vital Signs Section","code":{"coding":[{"system":"http://loinc.org","code":"8716-3","display":"Vital signs"}]},"text":{"status":"generated","div":"<div xmlns=\"http://www.w3.org/1999/xhtml\">\n                            <table>\n                                <tr>\n                                    <td style=\"font-weight: bold\">title</td>\n                                    <td>\n                                        <div title=\"title\">Vital Signs Section</div>\n                                    </td>\n                                </tr>\n                                <tr>\n                                    <td style=\"font-weight: bold\">code</td>\n                                    <td>\n                                        <ul style=\"list-style:none; padding-left:0; margin:0 0;\">\n                                            <li>\n                                                <ul style=\"list-style:none; padding-left:0; margin:0 0;\">\n                                                    <li>\n                                                        <div title=\"display\">Vital signs</div> ( <div title=\"code\">8716-3</div> ) </li>\n                                                    <li>\n                                                        <div title=\"system\">\n                                                            <a href=\"http://loinc.org\">http://loinc.org</a>\n                                                        </div>\n                                                    </li>\n                                                </ul>\n                                            </li>\n                                        </ul>\n                                    </td>\n                                </tr>\n                                <tr>\n                                    <td style=\"font-weight: bold\">entry</td>\n                                    <td>\n                                        <a href=\"Observation-observation-blood-pressure-eve-everywoman.html\">Blood pressure systolic and diastolic</a>\n                                    </td>\n                                </tr>\n                            </table>\n                        </div>"},"entry":[{"reference":"Observation/observation-blood-pressure-eve-everywoman","display":"Blood pressure systolic and diastolic"}]},{"title":"Social History Section","code":{"coding":[{"system":"http://loinc.org","code":"29762-2","display":"Social history Narrative"}]},"text":{"status":"generated","div":"<div xmlns=\"http://www.w3.org/1999/xhtml\">\n                            <table>\n                                <tr>\n                                    <td style=\"font-weight: bold\">title</td>\n                                    <td>\n                                        <div title=\"title\">Social History Section</div>\n                                    </td>\n                                </tr>\n                                <tr>\n                                    <td style=\"font-weight: bold\">code</td>\n                                    <td>\n                                        <ul style=\"list-style:none; padding-left:0; margin:0 0;\">\n                                            <li>\n                                                <ul style=\"list-style:none; padding-left:0; margin:0 0;\">\n                                                    <li>\n                                                        <div title=\"display\">Social history Narrative</div> ( <div title=\"code\">29762-2</div> ) </li>\n                                                    <li>\n                                                        <div title=\"system\">\n                                                            <a href=\"http://loinc.org\">http://loinc.org</a>\n                                                        </div>\n                                                    </li>\n                                                </ul>\n                                            </li>\n                                        </ul>\n                                    </td>\n                                </tr>\n                                <tr>\n                                    <td style=\"font-weight: bold\">entry</td>\n                                    <td>\n                                        <a href=\"Observation-observation-travel-history-eve-everywoman-201801.html\">eICR Travel History: Eve Everywoman 2018-01</a>\n                                        <table>\n                                            <tr>\n                                                <td style=\"font-weight: bold\">id</td>\n                                                <td>\n                                                    <div title=\"id\">observation-travel-history-eve-everywoman-201801</div>\n                                                </td>\n                                            </tr>\n                                            <tr>\n                                                <td style=\"font-weight: bold\">meta</td>\n                                                <td>\n                                                    <table>\n                                                        <tr>\n                                                            <td style=\"font-weight: bold\">versionId</td>\n                                                            <td>\n                                                                <div title=\"versionId\">11</div>\n                                                            </td>\n                                                        </tr>\n                                                        <tr>\n                                                            <td style=\"font-weight: bold\">lastUpdated</td>\n                                                            <td>\n                                                                <div title=\"lastUpdated\">2019-10-05T03:15:42.000-04:00</div>\n                                                            </td>\n                                                        </tr>\n                                                        <tr>\n                                                            <td style=\"font-weight: bold\">profile</td>\n                                                            <td>\n                                                                <div title=\"profile\">http://hl7.org/fhir/us/ecr/StructureDefinition/us-ph-travel-history</div>\n                                                            </td>\n                                                        </tr>\n                                                    </table>\n                                                </td>\n                                            </tr>\n                                            <tr>\n                                                <td style=\"font-weight: bold\">status</td>\n                                                <td>\n                                                    <div title=\"status\">final</div>\n                                                </td>\n                                            </tr>\n                                            <tr>\n                                                <td style=\"font-weight: bold\">code</td>\n                                                <td>\n                                                    <ul style=\"list-style:none; padding-left:0; margin:0 0;\">\n                                                        <li>\n                                                            <div title=\"text\">Travel History</div>\n                                                        </li>\n                                                        <li>\n                                                            <ul style=\"list-style:none; padding-left:0; margin:0 0;\">\n                                                                <li>\n                                                                    <div title=\"display\">Travel</div> ( <div title=\"code\">420008001</div> ) </li>\n                                                                <li>\n                                                                    <div title=\"system\">\n                                                                        <a href=\"http://snomed.info/sct\">http://snomed.info/sct</a>\n                                                                    </div>\n                                                                </li>\n                                                            </ul>\n                                                        </li>\n                                                    </ul>\n                                                </td>\n                                            </tr>\n                                            <tr>\n                                                <td style=\"font-weight: bold\">subject</td>\n                                                <td>\n                                                    <ul style=\"list-style:none; padding-left:0; margin:0 0;\">\n                                                        <li/>\n                                                        <li>\n                                                            <a href=\"Patient-patient-ecr-eve-everywoman.html\">Eve Everywoman</a>\n                                                        </li>\n                                                    </ul>\n                                                </td>\n                                            </tr>\n                                            <tr>\n                                                <td style=\"font-weight: bold\">effectivePeriod</td>\n                                                <td>\n                                                    <table>\n                                                        <tr>\n                                                            <td style=\"font-weight: bold\">start</td>\n                                                            <td>\n                                                                <div title=\"start\">2018-01-15</div>\n                                                            </td>\n                                                        </tr>\n                                                        <tr>\n                                                            <td style=\"font-weight: bold\">end</td>\n                                                            <td>\n                                                                <div title=\"end\">2018-01-30</div>\n                                                            </td>\n                                                        </tr>\n                                                    </table>\n                                                </td>\n                                            </tr>\n                                            <tr>\n                                                <td style=\"font-weight: bold\">component</td>\n                                                <td>\n                                                    <table>\n                                                        <tr>\n                                                            <td style=\"font-weight: bold\">code</td>\n                                                            <td>\n                                                                <ul style=\"list-style:none; padding-left:0; margin:0 0;\">\n                                                                    <li>\n                                                                        <ul style=\"list-style:none; padding-left:0; margin:0 0;\">\n                                                                            <li>\n                                                                                <div title=\"display\">Location</div> ( <div title=\"code\">LOC</div> ) </li>\n                                                                            <li>\n                                                                                <div title=\"system\">\n                                                                                    <a href=\"http://terminology.hl7.org/CodeSystem/v3-ParticipationType\">http://terminology.hl7.org/CodeSystem/v3-ParticipationType</a>\n                                                                                </div>\n                                                                            </li>\n                                                                        </ul>\n                                                                    </li>\n                                                                </ul>\n                                                            </td>\n                                                        </tr>\n                                                        <tr>\n                                                            <td style=\"font-weight: bold\">valueCodeableConcept</td>\n                                                            <td>\n                                                                <ul style=\"list-style:none; padding-left:0; margin:0 0;\">\n                                                                    <li>\n                                                                        <ul style=\"list-style:none; padding-left:0; margin:0 0;\">\n                                                                            <li>\n                                                                                <div title=\"display\">Fiji</div> ( <div title=\"code\">FJI</div> ) </li>\n                                                                            <li>\n                                                                                <div title=\"system\">urn:iso:std:iso:3166</div>\n                                                                            </li>\n                                                                        </ul>\n                                                                    </li>\n                                                                </ul>\n                                                            </td>\n                                                        </tr>\n                                                    </table>\n                                                </td>\n                                            </tr>\n                                            <tr>\n                                                <td style=\"font-weight: bold\">component</td>\n                                                <td>\n                                                    <table>\n                                                        <tr>\n                                                            <td style=\"font-weight: bold\">code</td>\n                                                            <td>\n                                                                <ul style=\"list-style:none; padding-left:0; margin:0 0;\">\n                                                                    <li>\n                                                                        <ul style=\"list-style:none; padding-left:0; margin:0 0;\">\n                                                                            <li>\n                                                                                <div title=\"display\">Location</div> ( <div title=\"code\">LOC</div> ) </li>\n                                                                            <li>\n                                                                                <div title=\"system\">\n                                                                                    <a href=\"http://terminology.hl7.org/CodeSystem/v3-ParticipationType\">http://terminology.hl7.org/CodeSystem/v3-ParticipationType</a>\n                                                                                </div>\n                                                                            </li>\n                                                                        </ul>\n                                                                    </li>\n                                                                </ul>\n                                                            </td>\n                                                        </tr>\n                                                        <tr>\n                                                            <td style=\"font-weight: bold\">valueCodeableConcept</td>\n                                                            <td>\n                                                                <ul style=\"list-style:none; padding-left:0; margin:0 0;\">\n                                                                    <li>\n                                                                        <ul style=\"list-style:none; padding-left:0; margin:0 0;\">\n                                                                            <li>\n                                                                                <div title=\"display\">Vanuatu</div> ( <div title=\"code\">VUT</div> ) </li>\n                                                                            <li>\n                                                                                <div title=\"system\">\n                                                                                    <a href=\"https://phinvads.cdc.gov/vads/ViewCodeSystem.action?id=1.0.3166.1\">https://phinvads.cdc.gov/vads/ViewCodeSystem.action?id=1.0.3166.1</a>\n                                                                                </div>\n                                                                            </li>\n                                                                        </ul>\n                                                                    </li>\n                                                                </ul>\n                                                            </td>\n                                                        </tr>\n                                                    </table>\n                                                </td>\n                                            </tr>\n                                        </table>\n                                    </td>\n                                </tr>\n                            </table>\n                        </div>"},"entry":[{"reference":"Observation/observation-travel-history-eve-everywoman-201801","display":"eICR Travel History: Eve Everywoman 2018-01"},{"reference":"Observation/observation-disability-status-eve-everywoman","display":"US Public Health Disability Status Example"},{"reference":"Observation/observation-us-ph-exposure-contact-info-football-game","display":"US Public Health Exposure Contact Information Example"},{"reference":"Observation/observation-country-of-nationality-eve-everywoman","display":"Country of Nationality Observation Example"},{"reference":"Observation/observation-country-of-residence-eve-everywoman","display":"Country of Residence Observation Example"}]},{"title":"Pregnancy Section","code":{"coding":[{"system":"http://loinc.org","code":"90767-5","display":"Pregnancy summary Document"}]},"text":{"status":"generated","div":"<div xmlns=\"http://www.w3.org/1999/xhtml\">\n                            <table>\n                                <tr>\n                                    <td style=\"font-weight: bold\">title</td>\n                                    <td>\n                                        <div title=\"title\">Pregnancy Section</div>\n                                    </td>\n                                </tr>\n                                <tr>\n                                    <td style=\"font-weight: bold\">code</td>\n                                    <td>\n                                        <ul style=\"list-style:none; padding-left:0; margin:0 0;\">\n                                            <li>\n                                                <ul style=\"list-style:none; padding-left:0; margin:0 0;\">\n                                                    <li>\n                                                        <div title=\"display\">Pregnancy summary Document</div> ( <div title=\"code\">90767-5</div> ) </li>\n                                                    <li>\n                                                        <div title=\"system\">\n                                                            <a href=\"http://loinc.org\">http://loinc.org</a>\n                                                        </div>\n                                                    </li>\n                                                </ul>\n                                            </li>\n                                        </ul>\n                                    </td>\n                                </tr>\n                                <tr>\n                                    <td style=\"font-weight: bold\">entry</td>\n                                    <td>\n                                        <a href=\"Observation-observation-pregnancy-status-eve-everywoman.html\">eICR Pregnancy Status Example</a>\n                                        <table>\n                                            <tr>\n                                                <td style=\"font-weight: bold\">id</td>\n                                                <td>\n                                                    <div title=\"id\">observation-pregnancy-status-eve-everywoman</div>\n                                                </td>\n                                            </tr>\n                                            <tr>\n                                                <td style=\"font-weight: bold\">meta</td>\n                                                <td>\n                                                    <table>\n                                                        <tr>\n                                                            <td style=\"font-weight: bold\">versionId</td>\n                                                            <td>\n                                                                <div title=\"versionId\">13</div>\n                                                            </td>\n                                                        </tr>\n                                                        <tr>\n                                                            <td style=\"font-weight: bold\">lastUpdated</td>\n                                                            <td>\n                                                                <div title=\"lastUpdated\">2019-10-05T03:15:42.000-04:00</div>\n                                                            </td>\n                                                        </tr>\n                                                        <tr>\n                                                            <td style=\"font-weight: bold\">profile</td>\n                                                            <td>\n                                                                <div title=\"profile\">http://hl7.org/fhir/us/ecr/StructureDefinition/us-ph-pregnancy-status-observation</div>\n                                                            </td>\n                                                        </tr>\n                                                    </table>\n                                                </td>\n                                            </tr>\n                                            <tr>\n                                                <td style=\"font-weight: bold\">us-ph-date-recorded-extension</td>\n                                                <td>\n                                                    <ul style=\"list-style:none; padding-left:0; margin:0 0;\">\n                                                        <li>\n                                                            <div title=\"valueDateTime\">2017-10-01</div>\n                                                        </li>\n                                                    </ul>\n                                                </td>\n                                            </tr>\n                                            <tr>\n                                                <td style=\"font-weight: bold\">date-determined-extension</td>\n                                                <td>\n                                                    <ul style=\"list-style:none; padding-left:0; margin:0 0;\">\n                                                        <li>\n                                                            <div title=\"valueDateTime\">2017-10-01</div>\n                                                        </li>\n                                                    </ul>\n                                                </td>\n                                            </tr>\n                                            <tr>\n                                                <td style=\"font-weight: bold\">status</td>\n                                                <td>\n                                                    <div title=\"status\">final</div>\n                                                </td>\n                                            </tr>\n                                            <tr>\n                                                <td style=\"font-weight: bold\">code</td>\n                                                <td>\n                                                    <ul style=\"list-style:none; padding-left:0; margin:0 0;\">\n                                                        <li>\n                                                            <ul style=\"list-style:none; padding-left:0; margin:0 0;\">\n                                                                <li>\n                                                                    <div title=\"display\">Pregnancy Status</div> ( <div title=\"code\">82810-3</div> ) </li>\n                                                                <li>\n                                                                    <div title=\"system\">\n                                                                        <a href=\"http://loinc.org\">http://loinc.org</a>\n                                                                    </div>\n                                                                </li>\n                                                            </ul>\n                                                        </li>\n                                                    </ul>\n                                                </td>\n                                            </tr>\n                                            <tr>\n                                                <td style=\"font-weight: bold\">subject</td>\n                                                <td>\n                                                    <ul style=\"list-style:none; padding-left:0; margin:0 0;\">\n                                                        <li/>\n                                                        <li>\n                                                            <a href=\"Patient-patient-ecr-eve-everywoman.html\">Eve Everywoman</a>\n                                                        </li>\n                                                    </ul>\n                                                </td>\n                                            </tr>\n                                            <tr>\n                                                <td style=\"font-weight: bold\">effectivePeriod</td>\n                                                <td>\n                                                    <table>\n                                                        <tr>\n                                                            <td style=\"font-weight: bold\">start</td>\n                                                            <td>\n                                                                <div title=\"start\">2017-08-26</div>\n                                                            </td>\n                                                        </tr>\n                                                    </table>\n                                                </td>\n                                            </tr>\n                                            <tr>\n                                                <td style=\"font-weight: bold\">valueCodeableConcept</td>\n                                                <td>\n                                                    <ul style=\"list-style:none; padding-left:0; margin:0 0;\">\n                                                        <li>\n                                                            <ul style=\"list-style:none; padding-left:0; margin:0 0;\">\n                                                                <li>\n                                                                    <div title=\"display\">Pregnancy (finding)</div> ( <div title=\"code\">77386006</div> ) </li>\n                                                                <li>\n                                                                    <div title=\"system\">\n                                                                        <a href=\"http://snomed.info/sct\">http://snomed.info/sct</a>\n                                                                    </div>\n                                                                </li>\n                                                            </ul>\n                                                        </li>\n                                                    </ul>\n                                                </td>\n                                            </tr>\n                                            <tr>\n                                                <td style=\"font-weight: bold\">method</td>\n                                                <td>\n                                                    <ul style=\"list-style:none; padding-left:0; margin:0 0;\">\n                                                        <li>\n                                                            <ul style=\"list-style:none; padding-left:0; margin:0 0;\">\n                                                                <li>\n                                                                    <div title=\"display\">Ultrasonography (procedure)</div> ( <div title=\"code\">16310003</div> ) </li>\n                                                                <li>\n                                                                    <div title=\"system\">\n                                                                        <a href=\"http://snomed.info/sct\">http://snomed.info/sct</a>\n                                                                    </div>\n                                                                </li>\n                                                            </ul>\n                                                        </li>\n                                                    </ul>\n                                                </td>\n                                            </tr>\n                                            <tr>\n                                                <td style=\"font-weight: bold\">component</td>\n                                                <td>\n                                                    <table>\n                                                        <tr>\n                                                            <td style=\"font-weight: bold\">date-determined-extension</td>\n                                                            <td>\n                                                                <ul style=\"list-style:none; padding-left:0; margin:0 0;\">\n                                                                    <li>\n                                                                        <div title=\"valueDateTime\">2017-10-01</div>\n                                                                    </li>\n                                                                </ul>\n                                                            </td>\n                                                        </tr>\n                                                        <tr>\n                                                            <td style=\"font-weight: bold\">code</td>\n                                                            <td>\n                                                                <ul style=\"list-style:none; padding-left:0; margin:0 0;\">\n                                                                    <li>\n                                                                        <ul style=\"list-style:none; padding-left:0; margin:0 0;\">\n                                                                            <li>\n                                                                                <div title=\"display\">Gestational age Estimated from patient reported estimated date of conception</div> ( <div title=\"code\">53691-2</div> ) </li>\n                                                                            <li>\n                                                                                <div title=\"system\">\n                                                                                    <a href=\"http://loinc.org\">http://loinc.org</a>\n                                                                                </div>\n                                                                            </li>\n                                                                        </ul>\n                                                                    </li>\n                                                                </ul>\n                                                            </td>\n                                                        </tr>\n                                                        <tr>\n                                                            <td style=\"font-weight: bold\">valueQuantity</td>\n                                                            <td>\n                                                                <ul style=\"list-style:none; padding-left:0; margin:0 0;\">\n                                                                    <li>\n                                                                        <div title=\"value\">143</div>\n                                                                    </li>\n                                                                    <li>\n                                                                        <div title=\"unit\">d</div>\n                                                                    </li>\n                                                                </ul>\n                                                            </td>\n                                                        </tr>\n                                                    </table>\n                                                </td>\n                                            </tr>\n                                            <tr>\n                                                <td style=\"font-weight: bold\">component</td>\n                                                <td>\n                                                    <table>\n                                                        <tr>\n                                                            <td style=\"font-weight: bold\">date-determined-extension</td>\n                                                            <td>\n                                                                <ul style=\"list-style:none; padding-left:0; margin:0 0;\">\n                                                                    <li>\n                                                                        <div title=\"valueDateTime\">2017-10-01</div>\n                                                                    </li>\n                                                                </ul>\n                                                            </td>\n                                                        </tr>\n                                                        <tr>\n                                                            <td style=\"font-weight: bold\">code</td>\n                                                            <td>\n                                                                <ul style=\"list-style:none; padding-left:0; margin:0 0;\">\n                                                                    <li>\n                                                                        <ul style=\"list-style:none; padding-left:0; margin:0 0;\">\n                                                                            <li>\n                                                                                <div title=\"display\">Delivery date Estimated from date fundal height reaches umb</div> ( <div title=\"code\">57064-8</div> ) </li>\n                                                                            <li>\n                                                                                <div title=\"system\">\n                                                                                    <a href=\"http://loinc.org\">http://loinc.org</a>\n                                                                                </div>\n                                                                            </li>\n                                                                        </ul>\n                                                                    </li>\n                                                                </ul>\n                                                            </td>\n                                                        </tr>\n                                                        <tr>\n                                                            <td style=\"font-weight: bold\">valueDateTime</td>\n                                                            <td>\n                                                                <div title=\"valueDateTime\">2018-05-01</div>\n                                                            </td>\n                                                        </tr>\n                                                    </table>\n                                                </td>\n                                            </tr>\n                                        </table>\n                                    </td>\n                                </tr>\n                            </table>\n                        </div>"},"entry":[{"reference":"Observation/observation-pregnancy-status-eve-everywoman","display":"eICR Pregnancy Status Example"}]},{"title":"Emergency Outbreak Information Section","code":{"coding":[{"system":"http://loinc.org","code":"83910-0","display":"Public health Note"}]},"text":{"status":"generated","div":"<div xmlns=\"http://www.w3.org/1999/xhtml\">\n                            <table>\n                                <tr>\n                                    <td style=\"font-weight: bold\">title</td>\n                                    <td>\n                                        <div title=\"title\">Emergency Outbreak Information Section</div>\n                                    </td>\n                                </tr>\n                                <tr>\n                                    <td style=\"font-weight: bold\">code</td>\n                                    <td>\n                                        <ul style=\"list-style:none; padding-left:0; margin:0 0;\">\n                                            <li>\n                                                <ul style=\"list-style:none; padding-left:0; margin:0 0;\">\n                                                    <li>\n                                                        <div title=\"display\">Public health Note</div> ( <div title=\"code\">83910-0</div> ) </li>\n                                                    <li>\n                                                        <div title=\"system\">\n                                                            <a href=\"http://loinc.org\">http://loinc.org</a>\n                                                        </div>\n                                                    </li>\n                                                </ul>\n                                            </li>\n                                        </ul>\n                                    </td>\n                                </tr>\n                                <tr>\n                                    <td style=\"font-weight: bold\">entry</td>\n                                    <td>\n                                        <a href=\"Observation-observation-us-ph-emergency-outbreak-info-eve-everywoman.html\">US Public Health Emergency Outbreak Information Example</a>\n                                    </td>\n                                </tr>\n                            </table>\n                        </div>"},"entry":[{"reference":"Observation/observation-us-ph-emergency-outbreak-info-eve-everywoman","display":"US Public Health Emergency Outbreak Information Example"}]},{"title":"Past Medical History Section","code":{"coding":[{"system":"http://loinc.org","code":"11348-0","display":"History of Past illness Narrative"}]},"text":{"status":"generated","div":"<div xmlns=\"http://www.w3.org/1999/xhtml\">\n                            <table>\n                                <tr>\n                                    <td style=\"font-weight: bold\">title</td>\n                                    <td>\n                                        <div title=\"title\">Past Medical History Section</div>\n                                    </td>\n                                </tr>\n                                <tr>\n                                    <td style=\"font-weight: bold\">code</td>\n                                    <td>\n                                        <ul style=\"list-style:none; padding-left:0; margin:0 0;\">\n                                            <li>\n                                                <ul style=\"list-style:none; padding-left:0; margin:0 0;\">\n                                                    <li>\n                                                        <div title=\"display\">Past Medical History Narrative</div> ( <div title=\"code\">11348-0</div> ) </li>\n                                                    <li>\n                                                        <div title=\"system\">\n                                                            <a href=\"http://loinc.org\">http://loinc.org</a>\n                                                        </div>\n                                                    </li>\n                                                </ul>\n                                            </li>\n                                        </ul>\n                                    </td>\n                                </tr>\n                                <tr>\n                                    <td colspan=\"2\" lang=\"en-US\" class=\"text-no-entries\">\n                                        <p>Past medical history</p>\n                                    </td>\n                                </tr>\n                            </table>\n                        </div>"}},{"title":"Review of Systems Section","code":{"coding":[{"system":"http://loinc.org","code":"10187-3","display":"Review of systems Narrative - Reported"}]},"text":{"status":"generated","div":"<div xmlns=\"http://www.w3.org/1999/xhtml\">\n                            <table>\n                                <tr>\n                                    <td style=\"font-weight: bold\">title</td>\n                                    <td>\n                                        <div title=\"title\">Review of Systems Section</div>\n                                    </td>\n                                </tr>\n                                <tr>\n                                    <td style=\"font-weight: bold\">code</td>\n                                    <td>\n                                        <ul style=\"list-style:none; padding-left:0; margin:0 0;\">\n                                            <li>\n                                                <ul style=\"list-style:none; padding-left:0; margin:0 0;\">\n                                                    <li>\n                                                        <div title=\"display\">Review of Systems Section Narrative</div> ( <div title=\"code\">10187-3</div> ) </li>\n                                                    <li>\n                                                        <div title=\"system\">\n                                                            <a href=\"http://loinc.org\">http://loinc.org</a>\n                                                        </div>\n                                                    </li>\n                                                </ul>\n                                            </li>\n                                        </ul>\n                                    </td>\n                                </tr>\n                                <tr>\n                                    <td colspan=\"2\" lang=\"en-US\" class=\"text-no-entries\">\n                                        <p>Review of systems</p>\n                                    </td>\n                                </tr>\n                            </table>\n                        </div>"}}]}},{"fullUrl":"http://example.org/fhir/MedicationAdministration/medicationadministration-eve-everywoman-azithromycin","resource":{"resourceType":"MedicationAdministration","id":"medicationadministration-eve-everywoman-azithromycin","meta":{"versionId":"6","lastUpdated":"2021-08-17T07:53:28.598+00:00","source":"#O8n4DNqcDuNHPfTJ","profile":["http://hl7.org/fhir/us/ecr/StructureDefinition/us-ph-medicationadministration"]},"text":{"status":"generated","div":"<div xmlns=\"http://www.w3.org/1999/xhtml\"><a name=\"MedicationAdministration_medicationadministration-eve-everywoman-azithromycin\"> </a><p class=\"res-header-id\"><b>Generated Narrative: MedicationAdministration medicationadministration-eve-everywoman-azithromycin</b></p><a name=\"medicationadministration-eve-everywoman-azithromycin\"> </a><a name=\"hcmedicationadministration-eve-everywoman-azithromycin\"> </a><a name=\"medicationadministration-eve-everywoman-azithromycin-en-US\"> </a><div style=\"display: inline-block; background-color: #d9e0e7; padding: 6px; margin: 4px; border: 1px solid #8da1b4; border-radius: 5px; line-height: 60%\"><p style=\"margin-bottom: 0px\">version: 6; Last updated: 2021-08-17 07:53:28+0000; </p><p style=\"margin-bottom: 0px\">Information Source: #O8n4DNqcDuNHPfTJ</p><p style=\"margin-bottom: 0px\">Profile: <a href=\"StructureDefinition-us-ph-medicationadministration.html\">US Public Health MedicationAdministration</a></p></div><p><b>status</b>: Completed</p><p><b>medication</b>: <span title=\"Codes:{http://www.nlm.nih.gov/research/umls/rxnorm 248656}\">Azithromycin 500 MG Oral Tablet</span></p><p><b>subject</b>: <a href=\"Patient-patient-ecr-eve-everywoman.html\">Eve Everywoman</a></p><p><b>effective</b>: 2018-03-07 --&gt; 2018-03-07</p><h3>Dosages</h3><table class=\"grid\"><tr><td style=\"display: none\">-</td><td><b>Text</b></td><td><b>Route</b></td><td><b>Method</b></td><td><b>Dose</b></td></tr><tr><td style=\"display: none\">*</td><td>Two tablets at once</td><td><span title=\"Codes:{http://snomed.info/sct 26643006}\">Oral route</span></td><td><span title=\"Codes:{http://snomed.info/sct 421521009}\">Swallow - dosing instruction imperative (qualifier value)</span></td><td>2 TAB<span style=\"background: LightGoldenRodYellow\"> (Details: Orderable Drug Form  codeTAB = 'Tablet')</span></td></tr></table></div>"},"status":"completed","medicationCodeableConcept":{"coding":[{"system":"http://www.nlm.nih.gov/research/umls/rxnorm","code":"248656","display":"Azithromycin 500 MG Oral Tablet"}],"text":"Azithromycin 500 MG Oral Tablet"},"subject":{"reference":"Patient/patient-ecr-eve-everywoman","display":"Eve Everywoman"},"effectivePeriod":{"start":"2018-03-07","end":"2018-03-07"},"dosage":{"text":"Two tablets at once","route":{"coding":[{"system":"http://snomed.info/sct","code":"26643006","display":"Oral route"}]},"method":{"coding":[{"system":"http://snomed.info/sct","code":"421521009","display":"Swallow - dosing instruction imperative (qualifier value)"}]},"dose":{"value":2,"unit":"TAB","system":"http://terminology.hl7.org/CodeSystem/v3-orderableDrugForm","code":"TAB"}}}},{"fullUrl":"http://example.org/fhir/Procedure/us-ph-procedure-ecmo","resource":{"resourceType":"Procedure","id":"us-ph-procedure-ecmo","meta":{"versionId":"5","lastUpdated":"2021-06-28T08:12:56.829+00:00","source":"#A9FdbPgUT95j7Itd","profile":["http://hl7.org/fhir/us/ecr/StructureDefinition/eicr-procedure"]},"text":{"status":"generated","div":"<div xmlns=\"http://www.w3.org/1999/xhtml\"><a name=\"Procedure_us-ph-procedure-ecmo\"> </a><p class=\"res-header-id\"><b>Generated Narrative: Procedure us-ph-procedure-ecmo</b></p><a name=\"us-ph-procedure-ecmo\"> </a><a name=\"hcus-ph-procedure-ecmo\"> </a><a name=\"us-ph-procedure-ecmo-en-US\"> </a><div style=\"display: inline-block; background-color: #d9e0e7; padding: 6px; margin: 4px; border: 1px solid #8da1b4; border-radius: 5px; line-height: 60%\"><p style=\"margin-bottom: 0px\">version: 5; Last updated: 2021-06-28 08:12:56+0000; </p><p style=\"margin-bottom: 0px\">Information Source: #A9FdbPgUT95j7Itd</p><p style=\"margin-bottom: 0px\">Profile: <a href=\"StructureDefinition-eicr-procedure.html\">eICR Procedure</a></p></div><p><b>identifier</b>: <a href=\"http://terminology.hl7.org/6.0.2/NamingSystem-uri.html\" title=\"As defined by RFC 3986 (http://www.ietf.org/rfc/rfc3986.txt)(with many schemes defined in many RFCs). For OIDs and UUIDs, use the URN form (urn:oid:(note: lowercase) and urn:uuid:). See http://www.ietf.org/rfc/rfc3001.txt and http://www.ietf.org/rfc/rfc4122.txt \r\n\r\nThis oid is used as an identifier II.root to indicate the the extension is an absolute URI (technically, an IRI). Typically, this is used for OIDs and GUIDs. Note that when this OID is used with OIDs and GUIDs, the II.extension should start with urn:oid or urn:uuid: \r\n\r\nNote that this OID is created to aid with interconversion between CDA and FHIR - FHIR uses urn:ietf:rfc:3986 as equivalent to this OID. URIs as identifiers appear more commonly in FHIR.\r\n\r\nThis OID may also be used in CD.codeSystem.\">Uniform Resource Identifier (URI)</a>/urn:uuid:b2a737f2-2fdb-49c1-b097-dac173d07afd</p><p><b>status</b>: Completed</p><p><b>code</b>: <span title=\"Codes:{http://snomed.info/sct 233573008}\">Extracorporeal membrane oxygenation (procedure)</span></p><p><b>subject</b>: <a href=\"Patient-patient-ecr-eve-everywoman.html\"> Female, DoB: 1974-11-24 ( Medical Record Number: 1032702\u00a0(use:\u00a0usual,\u00a0))</a></p><p><b>performed</b>: 2020-11-01 12:55:26-0700 --&gt; 2020-11-01 13:25:26-0700</p><h3>FocalDevices</h3><table class=\"grid\"><tr><td style=\"display: none\">-</td><td><b>Manipulated</b></td></tr><tr><td style=\"display: none\">*</td><td><a href=\"Device-device-ecmo.html\">Device: status = active; manufacturer = ACME Biomedical; expirationDate = 2022-01-01; lotNumber = M320; serialNumber = AC222; modelNumber = 4.0; type = Extracorporeal membrane oxygenator (physical object)</a></td></tr></table></div>"},"identifier":[{"system":"urn:ietf:rfc:3986","value":"urn:uuid:b2a737f2-2fdb-49c1-b097-dac173d07afd"}],"status":"completed","code":{"coding":[{"system":"http://snomed.info/sct","code":"233573008","display":"Extracorporeal membrane oxygenation (procedure)"}],"text":"Extracorporeal membrane oxygenation (procedure)"},"subject":{"reference":"Patient/patient-ecr-eve-everywoman"},"performedPeriod":{"start":"2020-11-01T12:55:26-07:00","end":"2020-11-01T13:25:26-07:00"},"focalDevice":[{"manipulated":{"reference":"Device/device-ecmo"}}]}},{"fullUrl":"http://example.org/fhir/MedicationAdministration/medicationadministration-eve-everywoman-naloxone-response","resource":{"resourceType":"MedicationAdministration","id":"medicationadministration-eve-everywoman-naloxone-response","meta":{"versionId":"5","lastUpdated":"2021-08-17T07:53:28.597+00:00","source":"#5sOf7BOr595JpyG7","profile":["http://hl7.org/fhir/us/ecr/StructureDefinition/us-ph-medicationadministration"]},"text":{"status":"extensions","div":"<div xmlns=\"http://www.w3.org/1999/xhtml\"><a name=\"MedicationAdministration_medicationadministration-eve-everywoman-naloxone-response\"> </a><p class=\"res-header-id\"><b>Generated Narrative: MedicationAdministration medicationadministration-eve-everywoman-naloxone-response</b></p><a name=\"medicationadministration-eve-everywoman-naloxone-response\"> </a><a name=\"hcmedicationadministration-eve-everywoman-naloxone-response\"> </a><a name=\"medicationadministration-eve-everywoman-naloxone-response-en-US\"> </a><div style=\"display: inline-block; background-color: #d9e0e7; padding: 6px; margin: 4px; border: 1px solid #8da1b4; border-radius: 5px; line-height: 60%\"><p style=\"margin-bottom: 0px\">version: 5; Last updated: 2021-08-17 07:53:28+0000; </p><p style=\"margin-bottom: 0px\">Information Source: #5sOf7BOr595JpyG7</p><p style=\"margin-bottom: 0px\">Profile: <a href=\"StructureDefinition-us-ph-medicationadministration.html\">US Public Health MedicationAdministration</a></p></div><p><b>US Public Health Therapeutic Medication Response Extension</b>: <span title=\"Codes:{http://snomed.info/sct 268910001}\">Patient's condition improved (finding)</span></p><p><b>status</b>: Completed</p><p><b>medication</b>: <span title=\"Codes:{http://www.nlm.nih.gov/research/umls/rxnorm 1659929}\">1 ML naloxone hydrochloride 0.4 MG/ML Injection</span></p><p><b>subject</b>: <a href=\"Patient-patient-ecr-eve-everywoman.html\">Eve Everywoman</a></p><p><b>effective</b>: 2018-03-07 --&gt; 2018-03-07</p><h3>Dosages</h3><table class=\"grid\"><tr><td style=\"display: none\">-</td><td><b>Route</b></td><td><b>Method</b></td><td><b>Dose</b></td></tr><tr><td style=\"display: none\">*</td><td><span title=\"Codes:{http://snomed.info/sct 206007}\">Gluteus maximus muscle</span></td><td><span title=\"Codes:{http://snomed.info/sct 422145002}\">Inject - dosing instruction imperative (qualifier value)</span></td><td>1 mL<span style=\"background: LightGoldenRodYellow\"> (Details: UCUM  codemL = 'mL')</span></td></tr></table></div>"},"extension":[{"url":"http://hl7.org/fhir/us/ecr/StructureDefinition/us-ph-therapeutic-medication-response-extension","valueCodeableConcept":{"coding":[{"system":"http://snomed.info/sct","code":"268910001","display":"Patient's condition improved (finding)"}]}}],"status":"completed","medicationCodeableConcept":{"coding":[{"system":"http://www.nlm.nih.gov/research/umls/rxnorm","code":"1659929","display":"1 ML naloxone hydrochloride 0.4 MG/ML Injection"}]},"subject":{"reference":"Patient/patient-ecr-eve-everywoman","display":"Eve Everywoman"},"effectivePeriod":{"start":"2018-03-07","end":"2018-03-07"},"dosage":{"route":{"coding":[{"system":"http://snomed.info/sct","code":"206007","display":"Gluteus maximus muscle"}]},"method":{"coding":[{"system":"http://snomed.info/sct","code":"422145002","display":"Inject - dosing instruction imperative (qualifier value)"}]},"dose":{"value":1,"unit":"mL","system":"http://unitsofmeasure.org","code":"mL"}}}},{"fullUrl":"http://example.org/fhir/ServiceRequest/servicerequest-eicr-zika","resource":{"resourceType":"ServiceRequest","id":"servicerequest-eicr-zika","meta":{"versionId":"5","lastUpdated":"2021-08-17T08:02:21.928+00:00","source":"#w4zRDqhjQ9EZHgCs","profile":["http://hl7.org/fhir/us/ecr/StructureDefinition/eicr-servicerequest"]},"text":{"status":"generated","div":"<div xmlns=\"http://www.w3.org/1999/xhtml\"><a name=\"ServiceRequest_servicerequest-eicr-zika\"> </a><p class=\"res-header-id\"><b>Generated Narrative: ServiceRequest servicerequest-eicr-zika</b></p><a name=\"servicerequest-eicr-zika\"> </a><a name=\"hcservicerequest-eicr-zika\"> </a><a name=\"servicerequest-eicr-zika-en-US\"> </a><div style=\"display: inline-block; background-color: #d9e0e7; padding: 6px; margin: 4px; border: 1px solid #8da1b4; border-radius: 5px; line-height: 60%\"><p style=\"margin-bottom: 0px\">version: 5; Last updated: 2021-08-17 08:02:21+0000; </p><p style=\"margin-bottom: 0px\">Information Source: #w4zRDqhjQ9EZHgCs</p><p style=\"margin-bottom: 0px\">Profile: <a href=\"StructureDefinition-eicr-servicerequest.html\">eICR ServiceRequest</a></p></div><p><b>identifier</b>: <code>http://lab.smarthealthit.org</code>/061ef612-344f-4e7b-81a8-1059ae7bbe19</p><p><b>status</b>: Completed</p><p><b>intent</b>: Order</p><p><b>category</b>: <span title=\"Codes:{http://snomed.info/sct 103693007}\">Diagnostics Procedure</span></p><p><b>code</b>: <span title=\"Codes:{http://loinc.org 80825-3}\">Zika RT-PCR</span></p><p><b>subject</b>: <a href=\"Patient-patient-ecr-eve-everywoman.html\">Eve Everywoman</a></p><p><b>performer</b>: <a href=\"Organization-organization-ecr-acme-laboratory.html\">Acme Labs</a></p></div>"},"identifier":[{"system":"http://lab.smarthealthit.org","value":"061ef612-344f-4e7b-81a8-1059ae7bbe19"}],"status":"completed","intent":"order","category":[{"coding":[{"system":"http://snomed.info/sct","code":"103693007","display":"Diagnostic procedure (procedure)"}],"text":"Diagnostics Procedure"}],"code":{"coding":[{"system":"http://loinc.org","code":"80825-3","display":"Zika virus envelope E gene [Presence] in Serum by NAA with probe detection"}],"text":"Zika RT-PCR"},"subject":{"reference":"Patient/patient-ecr-eve-everywoman","display":"Eve Everywoman"},"performer":[{"reference":"Organization/organization-ecr-acme-laboratory","display":"Acme Labs"}]}},{"fullUrl":"http://example.org/fhir/Condition/condition-eicr-eve-everywoman-common-cold","resource":{"resourceType":"Condition","id":"condition-eicr-eve-everywoman-common-cold","meta":{"versionId":"6","lastUpdated":"2021-07-15T01:54:14.831+00:00","source":"#4g0ZpTNqldHFYLzr","profile":["http://hl7.org/fhir/us/ecr/StructureDefinition/us-ph-condition"]},"text":{"status":"generated","div":"<div xmlns=\"http://www.w3.org/1999/xhtml\"><a name=\"Condition_condition-eicr-eve-everywoman-common-cold\"> </a><p class=\"res-header-id\"><b>Generated Narrative: Condition condition-eicr-eve-everywoman-common-cold</b></p><a name=\"condition-eicr-eve-everywoman-common-cold\"> </a><a name=\"hccondition-eicr-eve-everywoman-common-cold\"> </a><a name=\"condition-eicr-eve-everywoman-common-cold-en-US\"> </a><div style=\"display: inline-block; background-color: #d9e0e7; padding: 6px; margin: 4px; border: 1px solid #8da1b4; border-radius: 5px; line-height: 60%\"><p style=\"margin-bottom: 0px\">version: 6; Last updated: 2021-07-15 01:54:14+0000; </p><p style=\"margin-bottom: 0px\">Information Source: #4g0ZpTNqldHFYLzr</p><p style=\"margin-bottom: 0px\">Profile: <a href=\"StructureDefinition-us-ph-condition.html\">US Public Health Condition</a></p></div><p><b>category</b>: <span title=\"Codes:{http://terminology.hl7.org/CodeSystem/condition-category problem-list-item}\">Problem List Item</span></p><p><b>code</b>: <span title=\"Codes:{http://snomed.info/sct 82272006}\">Common cold (disorder)</span></p><p><b>subject</b>: <a href=\"Patient-patient-ecr-eve-everywoman.html\">Eve Everywoman</a></p><p><b>onset</b>: 2017-09-23</p><p><b>asserter</b>: <a href=\"Practitioner-practitioner-us-core-henry-seven.html\">Henry Seven, MD</a></p></div>"},"category":[{"coding":[{"system":"http://terminology.hl7.org/CodeSystem/condition-category","code":"problem-list-item","display":"Problem List Item"}]}],"code":{"coding":[{"system":"http://snomed.info/sct","code":"82272006","display":"Common cold (disorder)"}]},"subject":{"reference":"Patient/patient-ecr-eve-everywoman","display":"Eve Everywoman"},"onsetDateTime":"2017-09-23","asserter":{"reference":"Practitioner/practitioner-us-core-henry-seven","display":"Henry Seven, MD"}}},{"fullUrl":"http://example.org/fhir/Encounter/encounter-eicr-eve-everywoman-outpatient","resource":{"resourceType":"Encounter","id":"encounter-eicr-eve-everywoman-outpatient","meta":{"versionId":"5","lastUpdated":"2021-07-19T03:02:05.806+00:00","source":"#Q5dlT8eND2UI2D6e","profile":["http://hl7.org/fhir/us/ecr/StructureDefinition/eicr-encounter"]},"text":{"status":"extensions","div":"<div xmlns=\"http://www.w3.org/1999/xhtml\"><a name=\"Encounter_encounter-eicr-eve-everywoman-outpatient\"> </a><p class=\"res-header-id\"><b>Generated Narrative: Encounter encounter-eicr-eve-everywoman-outpatient</b></p><a name=\"encounter-eicr-eve-everywoman-outpatient\"> </a><a name=\"hcencounter-eicr-eve-everywoman-outpatient\"> </a><a name=\"encounter-eicr-eve-everywoman-outpatient-en-US\"> </a><div style=\"display: inline-block; background-color: #d9e0e7; padding: 6px; margin: 4px; border: 1px solid #8da1b4; border-radius: 5px; line-height: 60%\"><p style=\"margin-bottom: 0px\">version: 5; Last updated: 2021-07-19 03:02:05+0000; </p><p style=\"margin-bottom: 0px\">Information Source: #Q5dlT8eND2UI2D6e</p><p style=\"margin-bottom: 0px\">Profile: <a href=\"StructureDefinition-eicr-encounter.html\">eICR Encounter</a></p></div><p><b>identifier</b>: <code>http://hospital.smarthealthit.org</code>/9937012</p><p><b>status</b>: Finished</p><p><b>class</b>: <a href=\"http://terminology.hl7.org/6.0.2/CodeSystem-v3-ActCode.html#v3-ActCode-AMB\">ActCode AMB</a>: ambulatory</p><p><b>type</b>: <span title=\"Codes:{http://www.ama-assn.org/go/cpt 99202}\">Office Visit</span></p><p><b>subject</b>: <a href=\"Patient-patient-ecr-eve-everywoman.html\">Eve Everywoman</a></p><h3>Participants</h3><table class=\"grid\"><tr><td style=\"display: none\">-</td><td><b>Type</b></td><td><b>Individual</b></td></tr><tr><td style=\"display: none\">*</td><td><span title=\"Codes:{http://terminology.hl7.org/CodeSystem/v3-ParticipationType ATND}\">attender</span></td><td><a href=\"PractitionerRole-practitionerrole-henry-seven.html\">Henry Seven, MD</a></td></tr></table><p><b>period</b>: 2018-04-01 10:00:00-0500 --&gt; 2018-04-02 10:15:00-0500</p><blockquote><p><b>diagnosis</b></p><blockquote><p><b>eICR Trigger Code Flag Extension</b></p><ul><li>triggerCodeValueSet: urn:oid:2.16.840.1.114222.4.11.7508</li><li>triggerCodeValueSetVersion: 12/12/2018</li><li>triggerCode: <a href=\"http://snomed.info/id/3928002\">SNOMED CT 3928002</a>: Zika virus disease (disorder)</li></ul></blockquote><p><b>condition</b>: <a href=\"Condition-condition-eicr-eve-everywoman-zika.html\">Condition Zika virus disease (disorder)</a></p></blockquote><blockquote><p><b>diagnosis</b></p><p><b>condition</b>: <a href=\"Condition-condition-eicr-eve-everywoman-common-cold.html\">Condition Common cold (disorder)</a></p></blockquote><h3>Locations</h3><table class=\"grid\"><tr><td style=\"display: none\">-</td><td><b>Location</b></td></tr><tr><td style=\"display: none\">*</td><td><a href=\"Location-location-ecr-salem-medical-center.html\">Clinic Bldg A, Salem Medical Center, 4646 Brown Rd, Salem, MA 02368</a></td></tr></table><p><b>serviceProvider</b>: <a href=\"Organization-organization-ecr-salem-medical-center.html\">Salem Medical Center, 22222 Health Authority Drive, Ann Arbor MI, 99999</a></p></div>"},"identifier":[{"system":"http://hospital.smarthealthit.org","value":"9937012"}],"status":"finished","class":{"system":"http://terminology.hl7.org/CodeSystem/v3-ActCode","code":"AMB","display":"ambulatory"},"type":[{"coding":[{"system":"http://www.ama-assn.org/go/cpt","code":"99202"}],"text":"Office Visit"}],"subject":{"reference":"Patient/patient-ecr-eve-everywoman","display":"Eve Everywoman"},"participant":[{"type":[{"coding":[{"system":"http://terminology.hl7.org/CodeSystem/v3-ParticipationType","code":"ATND","display":"attender"}]}],"individual":{"reference":"PractitionerRole/practitionerrole-henry-seven","display":"Henry Seven, MD"}}],"period":{"start":"2018-04-01T10:00:00-05:00","end":"2018-04-02T10:15:00-05:00"},"diagnosis":[{"extension":[{"url":"http://hl7.org/fhir/us/ecr/StructureDefinition/eicr-trigger-code-flag-extension","extension":[{"url":"triggerCodeValueSet","valueOid":"urn:oid:2.16.840.1.114222.4.11.7508"},{"url":"triggerCodeValueSetVersion","valueString":"12/12/2018"},{"url":"triggerCode","valueCoding":{"system":"http://snomed.info/sct","code":"3928002","display":"Zika virus disease (disorder)"}}]}],"condition":{"reference":"Condition/condition-eicr-eve-everywoman-zika"}},{"condition":{"reference":"Condition/condition-eicr-eve-everywoman-common-cold"}}],"location":[{"location":{"reference":"Location/location-ecr-salem-medical-center","display":"Clinic Bldg A, Salem Medical Center, 4646 Brown Rd, Salem, MA 02368"}}],"serviceProvider":{"reference":"Organization/organization-ecr-salem-medical-center","display":"Salem Medical Center, 22222 Health Authority Drive, Ann Arbor MI, 99999"}}},{"fullUrl":"http://example.org/fhir/Observation/observation-pregnancy-status-eve-everywoman","resource":{"resourceType":"Observation","id":"observation-pregnancy-status-eve-everywoman","meta":{"versionId":"8","lastUpdated":"2021-08-17T07:59:00.824+00:00","source":"#bBlVx7OsNPsZVCbu","profile":["http://hl7.org/fhir/us/ecr/StructureDefinition/us-ph-pregnancy-status-observation"]},"text":{"status":"extensions","div":"<div xmlns=\"http://www.w3.org/1999/xhtml\"><a name=\"Observation_observation-pregnancy-status-eve-everywoman\"> </a><p class=\"res-header-id\"><b>Generated Narrative: Observation observation-pregnancy-status-eve-everywoman</b></p><a name=\"observation-pregnancy-status-eve-everywoman\"> </a><a name=\"hcobservation-pregnancy-status-eve-everywoman\"> </a><a name=\"observation-pregnancy-status-eve-everywoman-en-US\"> </a><div style=\"display: inline-block; background-color: #d9e0e7; padding: 6px; margin: 4px; border: 1px solid #8da1b4; border-radius: 5px; line-height: 60%\"><p style=\"margin-bottom: 0px\">version: 8; Last updated: 2021-08-17 07:59:00+0000; </p><p style=\"margin-bottom: 0px\">Information Source: #bBlVx7OsNPsZVCbu</p><p style=\"margin-bottom: 0px\">Profile: <a href=\"StructureDefinition-us-ph-pregnancy-status-observation.html\">US Public Health Pregnancy Status Observation</a></p></div><p><b>US Public Health Date Recorded Extension</b>: 2017-10-01</p><p><b>US Public Health Date Determined Extension</b>: 2017-10-01</p><p><b>status</b>: Final</p><p><b>code</b>: <span title=\"Codes:{http://loinc.org 82810-3}\">Pregnancy status</span></p><p><b>subject</b>: <a href=\"Patient-patient-ecr-eve-everywoman.html\">Eve Everywoman</a></p><p><b>effective</b>: 2017-08-26 --&gt; (ongoing)</p><p><b>value</b>: <span title=\"Codes:{http://snomed.info/sct 77386006}\">Pregnancy (finding)</span></p><p><b>method</b>: <span title=\"Codes:{http://snomed.info/sct 16310003}\">Ultrasonography (procedure)</span></p><blockquote><p><b>component</b></p><p><b>US Public Health Date Determined Extension</b>: 2017-10-01</p><p><b>code</b>: <span title=\"Codes:{http://loinc.org 53691-2}\">Gestational age Estimated from patient reported estimated date of conception</span></p><p><b>value</b>: 143 d</p></blockquote><blockquote><p><b>component</b></p><p><b>US Public Health Date Determined Extension</b>: 2017-10-01</p><p><b>code</b>: <span title=\"Codes:{http://loinc.org 57064-8}\">Delivery date Estimated from date fundal height reaches umb</span></p><p><b>value</b>: 2018-05-01</p></blockquote></div>"},"extension":[{"url":"http://hl7.org/fhir/us/ecr/StructureDefinition/us-ph-date-recorded-extension","valueDateTime":"2017-10-01"},{"url":"http://hl7.org/fhir/us/ecr/StructureDefinition/us-ph-date-determined-extension","valueDateTime":"2017-10-01"}],"status":"final","code":{"coding":[{"system":"http://loinc.org","code":"82810-3","display":"Pregnancy status"}]},"subject":{"reference":"Patient/patient-ecr-eve-everywoman","display":"Eve Everywoman"},"effectivePeriod":{"start":"2017-08-26"},"valueCodeableConcept":{"coding":[{"system":"http://snomed.info/sct","code":"77386006","display":"Pregnancy (finding)"}]},"method":{"coding":[{"system":"http://snomed.info/sct","code":"16310003","display":"Ultrasonography (procedure)"}]},"component":[{"extension":[{"url":"http://hl7.org/fhir/us/ecr/StructureDefinition/us-ph-date-determined-extension","valueDateTime":"2017-10-01"}],"code":{"coding":[{"system":"http://loinc.org","code":"53691-2","display":"Gestational age Estimated from patient reported estimated date of conception"}]},"valueQuantity":{"value":143,"unit":"d"}},{"extension":[{"url":"http://hl7.org/fhir/us/ecr/StructureDefinition/us-ph-date-determined-extension","valueDateTime":"2017-10-01"}],"code":{"coding":[{"system":"http://loinc.org","code":"57064-8","display":"Delivery date Estimated from date fundal height reaches umb"}]},"valueDateTime":"2018-05-01"}]}},{"fullUrl":"http://example.org/fhir/Observation/observation-vaccine-credential-assertion-eve-everywoman","resource":{"resourceType":"Observation","id":"observation-vaccine-credential-assertion-eve-everywoman","meta":{"versionId":"2","lastUpdated":"2021-08-13T04:25:18.607+00:00","source":"#12yO2DqhRxbXmEOy","profile":["http://hl7.org/fhir/us/ecr/StructureDefinition/eicr-vaccine-credential-patient-assertion"]},"text":{"status":"generated","div":"<div xmlns=\"http://www.w3.org/1999/xhtml\"><a name=\"Observation_observation-vaccine-credential-assertion-eve-everywoman\"> </a><p class=\"res-header-id\"><b>Generated Narrative: Observation observation-vaccine-credential-assertion-eve-everywoman</b></p><a name=\"observation-vaccine-credential-assertion-eve-everywoman\"> </a><a name=\"hcobservation-vaccine-credential-assertion-eve-everywoman\"> </a><a name=\"observation-vaccine-credential-assertion-eve-everywoman-en-US\"> </a><div style=\"display: inline-block; background-color: #d9e0e7; padding: 6px; margin: 4px; border: 1px solid #8da1b4; border-radius: 5px; line-height: 60%\"><p style=\"margin-bottom: 0px\">version: 2; Last updated: 2021-08-13 04:25:18+0000; </p><p style=\"margin-bottom: 0px\">Information Source: #12yO2DqhRxbXmEOy</p><p style=\"margin-bottom: 0px\">Profile: <a href=\"StructureDefinition-eicr-vaccine-credential-patient-assertion.html\">eICR Vaccine Credential Patient Assertion</a></p></div><p><b>status</b>: Final</p><p><b>code</b>: <span title=\"Codes:{http://loinc.org 11370-4}\">Immunization status - Reported</span></p><p><b>subject</b>: <a href=\"Patient-patient-ecr-eve-everywoman.html\">Eve Everywoman</a></p><p><b>effective</b>: 2020-11-10 22:33:22+0000</p><p><b>value</b>: <span title=\"Codes:{http://terminology.hl7.org/CodeSystem/v2-0532 Y}\">Yes</span></p></div>"},"status":"final","code":{"coding":[{"system":"http://loinc.org","code":"11370-4","display":"Immunization status - Reported"}]},"subject":{"reference":"Patient/patient-ecr-eve-everywoman","display":"Eve Everywoman"},"effectiveDateTime":"2020-11-10T22:33:22Z","valueCodeableConcept":{"coding":[{"system":"http://terminology.hl7.org/CodeSystem/v2-0532","code":"Y","display":"Yes"}]}}},{"fullUrl":"http://example.org/fhir/Observation/observation-us-ph-emergency-outbreak-info-eve-everywoman","resource":{"resourceType":"Observation","id":"observation-us-ph-emergency-outbreak-info-eve-everywoman","meta":{"versionId":"4","lastUpdated":"2021-07-15T01:22:52.178+00:00","source":"#oAXhG2HyvbL70uEB","profile":["http://hl7.org/fhir/us/ecr/StructureDefinition/us-ph-emergency-outbreak-information"]},"text":{"status":"generated","div":"<div xmlns=\"http://www.w3.org/1999/xhtml\"><a name=\"Observation_observation-us-ph-emergency-outbreak-info-eve-everywoman\"> </a><p class=\"res-header-id\"><b>Generated Narrative: Observation observation-us-ph-emergency-outbreak-info-eve-everywoman</b></p><a name=\"observation-us-ph-emergency-outbreak-info-eve-everywoman\"> </a><a name=\"hcobservation-us-ph-emergency-outbreak-info-eve-everywoman\"> </a><a name=\"observation-us-ph-emergency-outbreak-info-eve-everywoman-en-US\"> </a><div style=\"display: inline-block; background-color: #d9e0e7; padding: 6px; margin: 4px; border: 1px solid #8da1b4; border-radius: 5px; line-height: 60%\"><p style=\"margin-bottom: 0px\">version: 4; Last updated: 2021-07-15 01:22:52+0000; </p><p style=\"margin-bottom: 0px\">Information Source: #oAXhG2HyvbL70uEB</p><p style=\"margin-bottom: 0px\">Profile: <a href=\"StructureDefinition-us-ph-emergency-outbreak-information.html\">US Public Health Emergency Outbreak Information</a></p></div><p><b>status</b>: Final</p><p><b>code</b>: <span title=\"Codes:\">Employee desk distance from mail sorter</span></p><p><b>subject</b>: <a href=\"Patient-patient-ecr-eve-everywoman.html\">Eve Everywoman</a></p><p><b>effective</b>: 2020-11-18 22:33:22+0000</p><p><b>value</b>: 2 m</p></div>"},"status":"final","code":{"text":"Employee desk distance from mail sorter"},"subject":{"reference":"Patient/patient-ecr-eve-everywoman","display":"Eve Everywoman"},"effectiveDateTime":"2020-11-18T22:33:22Z","valueQuantity":{"value":2,"unit":"m"}}},{"fullUrl":"http://example.org/fhir/Observation/observation-country-of-nationality-eve-everywoman","resource":{"resourceType":"Observation","id":"observation-country-of-nationality-eve-everywoman","meta":{"versionId":"1","lastUpdated":"2021-08-19T21:30:49.456+00:00","source":"#ABFWLRjmURVC23y1","profile":["http://hl7.org/fhir/us/ecr/StructureDefinition/eicr-country-of-nationality"]},"text":{"status":"generated","div":"<div xmlns=\"http://www.w3.org/1999/xhtml\"><a name=\"Observation_observation-country-of-nationality-eve-everywoman\"> </a><p class=\"res-header-id\"><b>Generated Narrative: Observation observation-country-of-nationality-eve-everywoman</b></p><a name=\"observation-country-of-nationality-eve-everywoman\"> </a><a name=\"hcobservation-country-of-nationality-eve-everywoman\"> </a><a name=\"observation-country-of-nationality-eve-everywoman-en-US\"> </a><div style=\"display: inline-block; background-color: #d9e0e7; padding: 6px; margin: 4px; border: 1px solid #8da1b4; border-radius: 5px; line-height: 60%\"><p style=\"margin-bottom: 0px\">version: 1; Last updated: 2021-08-19 21:30:49+0000; </p><p style=\"margin-bottom: 0px\">Information Source: #ABFWLRjmURVC23y1</p><p style=\"margin-bottom: 0px\">Profile: <a href=\"StructureDefinition-eicr-country-of-nationality.html\">eICR Country of Nationality</a></p></div><p><b>status</b>: Final</p><p><b>code</b>: <span title=\"Codes:{http://snomed.info/sct 186034007}\">Ethnicity / related nationality data (observable entity)</span></p><p><b>subject</b>: <a href=\"Patient-patient-ecr-eve-everywoman.html\">Eve Everywoman</a></p><p><b>effective</b>: 2020-11-10 22:33:22+0000</p><p><b>value</b>: <span title=\"Codes:{urn:iso:std:iso:3166 AU}\">Australia</span></p></div>"},"status":"final","code":{"coding":[{"system":"http://snomed.info/sct","code":"186034007","display":"Ethnicity / related nationality data (observable entity)"}]},"subject":{"reference":"Patient/patient-ecr-eve-everywoman","display":"Eve Everywoman"},"effectiveDateTime":"2020-11-10T22:33:22Z","valueCodeableConcept":{"coding":[{"system":"urn:iso:std:iso:3166","code":"AU","display":"Australia"}]}}},{"fullUrl":"http://example.org/fhir/Patient/patient-ecr-eve-everywoman","resource":{"resourceType":"Patient","id":"patient-ecr-eve-everywoman","meta":{"versionId":"10","lastUpdated":"2021-08-17T08:00:32.356+00:00","source":"#zjFlzHDvZIYVyMAB","profile":["http://hl7.org/fhir/us/ecr/StructureDefinition/us-ph-patient"]},"text":{"status":"generated","div":"<div xmlns=\"http://www.w3.org/1999/xhtml\">\n                        <div class=\"hapiHeaderText\">Eve L <b>EVERYWOMAN </b>\n                        </div>\n                        <table class=\"hapiPropertyTable\">\n                            <tbody>\n                                <tr>\n                                    <td>Identifier</td>\n                                    <td>1032702</td>\n                                </tr>\n                                <tr>\n                                    <td>Address</td>\n                                    <td>\n                                        <span>5101 Peachtree St NE </span>\n                                        <br/>\n                                        <span>Atlanta </span>\n                                        <span>GA </span>\n                                        <span>US </span>\n                                    </td>\n                                </tr>\n                                <tr>\n                                    <td>Date of birth</td>\n                                    <td>\n                                        <span>24 November 1974</span>\n                                    </td>\n                                </tr>\n                            </tbody>\n                        </table>\n                    </div>"},"extension":[{"url":"http://hl7.org/fhir/us/core/StructureDefinition/us-core-race","extension":[{"url":"ombCategory","valueCoding":{"system":"urn:oid:2.16.840.1.113883.6.238","code":"2106-3","display":"White"}},{"url":"text","valueString":"White"}]},{"url":"http://hl7.org/fhir/us/core/StructureDefinition/us-core-ethnicity","extension":[{"url":"ombCategory","valueCoding":{"system":"urn:oid:2.16.840.1.113883.6.238","code":"2186-5","display":"Not Hispanic or Latino"}},{"url":"text","valueString":"Not Hispanic or Latino"}]},{"url":"http://hl7.org/fhir/us/core/StructureDefinition/us-core-birthsex","valueCode":"F"},{"url":"http://hl7.org/fhir/us/ecr/StructureDefinition/us-ph-genderidentity-extension","extension":[{"url":"value","valueCodeableConcept":{"coding":[{"system":"http://terminology.hl7.org/CodeSystem/v3-NullFlavor","code":"ASKU","display":"asked but unknown"}],"text":"asked but unknown"}}]},{"url":"http://hl7.org/fhir/us/ecr/StructureDefinition/us-ph-tribal-affiliation-extension","extension":[{"url":"TribeName","valueCoding":{"system":"http://terminology.hl7.org/CodeSystem/v3-TribalEntityUS","code":"91","display":"Fort Mojave Indian Tribe of Arizona, California & Nevada"}},{"url":"EnrolledTribeMember","valueBoolean":true}]}],"identifier":[{"use":"usual","type":{"coding":[{"system":"http://terminology.hl7.org/CodeSystem/v2-0203","code":"MR","display":"Medical Record Number"}]},"system":"http://hospital.smarthealthit.org","value":"1032702"}],"active":true,"name":[{"family":"Everywoman","given":["Eve","L"]}],"telecom":[{"system":"phone","value":"1-(404)555-1212","use":"home"},{"system":"email","value":"eve.everywoman@example.com"}],"gender":"female","birthDate":"1974-11-24","deceasedBoolean":false,"address":[{"line":["5101 Peachtree St NE"],"city":"Atlanta","state":"GA","postalCode":"30302","country":"US"}],"communication":[{"language":{"coding":[{"system":"urn:ietf:bcp:47","code":"en","display":"English"}]}}]}},{"fullUrl":"http://example.org/fhir/Immunization/immunization-ecr-pneumo","resource":{"resourceType":"Immunization","id":"immunization-ecr-pneumo","meta":{"versionId":"8","lastUpdated":"2021-08-17T07:51:35.117+00:00","source":"#EdjaILZHXKHi4bdN","profile":["http://hl7.org/fhir/us/core/StructureDefinition/us-core-immunization"]},"text":{"status":"generated","div":"<div xmlns=\"http://www.w3.org/1999/xhtml\"><a name=\"Immunization_immunization-ecr-pneumo\"> </a><p class=\"res-header-id\"><b>Generated Narrative: Immunization immunization-ecr-pneumo</b></p><a name=\"immunization-ecr-pneumo\"> </a><a name=\"hcimmunization-ecr-pneumo\"> </a><a name=\"immunization-ecr-pneumo-en-US\"> </a><div style=\"display: inline-block; background-color: #d9e0e7; padding: 6px; margin: 4px; border: 1px solid #8da1b4; border-radius: 5px; line-height: 60%\"><p style=\"margin-bottom: 0px\">version: 8; Last updated: 2021-08-17 07:51:35+0000; </p><p style=\"margin-bottom: 0px\">Information Source: #EdjaILZHXKHi4bdN</p><p style=\"margin-bottom: 0px\">Profile: <a href=\"http://hl7.org/fhir/us/core/STU4/StructureDefinition-us-core-immunization.html\">US Core Immunization Profile</a></p></div><p><b>status</b>: Completed</p><p><b>vaccineCode</b>: <span title=\"Codes:{http://hl7.org/fhir/sid/cvx 33}\">pneumococcal polysaccharide PPV23</span></p><p><b>patient</b>: <a href=\"Patient-patient-ecr-eve-everywoman.html\">Eve Everywoman</a></p><p><b>occurrence</b>: 2018-09-01</p><p><b>primarySource</b>: true</p></div>"},"status":"completed","vaccineCode":{"coding":[{"system":"http://hl7.org/fhir/sid/cvx","code":"33","display":"pneumococcal polysaccharide PPV23"}]},"patient":{"reference":"Patient/patient-ecr-eve-everywoman","display":"Eve Everywoman"},"occurrenceDateTime":"2018-09-01","primarySource":true}},{"fullUrl":"http://example.org/fhir/Observation/observation-country-of-residence-eve-everywoman","resource":{"resourceType":"Observation","id":"observation-country-of-residence-eve-everywoman","meta":{"versionId":"1","lastUpdated":"2021-08-13T00:20:14.025+00:00","source":"#HDoLJzr0kfWKFp3F","profile":["http://hl7.org/fhir/us/ecr/StructureDefinition/eicr-country-of-residence"]},"text":{"status":"generated","div":"<div xmlns=\"http://www.w3.org/1999/xhtml\"><a name=\"Observation_observation-country-of-residence-eve-everywoman\"> </a><p class=\"res-header-id\"><b>Generated Narrative: Observation observation-country-of-residence-eve-everywoman</b></p><a name=\"observation-country-of-residence-eve-everywoman\"> </a><a name=\"hcobservation-country-of-residence-eve-everywoman\"> </a><a name=\"observation-country-of-residence-eve-everywoman-en-US\"> </a><div style=\"display: inline-block; background-color: #d9e0e7; padding: 6px; margin: 4px; border: 1px solid #8da1b4; border-radius: 5px; line-height: 60%\"><p style=\"margin-bottom: 0px\">version: 1; Last updated: 2021-08-13 00:20:14+0000; </p><p style=\"margin-bottom: 0px\">Information Source: #HDoLJzr0kfWKFp3F</p><p style=\"margin-bottom: 0px\">Profile: <a href=\"StructureDefinition-eicr-country-of-residence.html\">eICR Country of Residence</a></p></div><p><b>status</b>: Final</p><p><b>code</b>: <span title=\"Codes:{http://loinc.org 77983-5}\">Country of usual residence</span></p><p><b>subject</b>: <a href=\"Patient-patient-ecr-eve-everywoman.html\">Eve Everywoman</a></p><p><b>effective</b>: 2020-11-10 22:33:22+0000</p><p><b>value</b>: <span title=\"Codes:{urn:iso:std:iso:3166 GB}\">United Kingdom of Great Britain and Northern Ireland</span></p></div>"},"status":"final","code":{"coding":[{"system":"http://loinc.org","code":"77983-5","display":"Country of usual residence"}]},"subject":{"reference":"Patient/patient-ecr-eve-everywoman","display":"Eve Everywoman"},"effectiveDateTime":"2020-11-10T22:33:22Z","valueCodeableConcept":{"coding":[{"system":"urn:iso:std:iso:3166","code":"GB","display":"United Kingdom of Great Britain and Northern Ireland"}]}}},{"fullUrl":"http://example.org/fhir/PractitionerRole/practitionerrole-henry-seven","resource":{"resourceType":"PractitionerRole","id":"practitionerrole-henry-seven","meta":{"versionId":"11","lastUpdated":"2021-08-17T08:00:32.355+00:00","source":"#KJ942UxvfdYWoHCF","profile":["http://hl7.org/fhir/us/ecr/StructureDefinition/us-ph-practitionerrole"]},"text":{"status":"generated","div":"<div xmlns=\"http://www.w3.org/1999/xhtml\"><a name=\"PractitionerRole_practitionerrole-henry-seven\"> </a><p class=\"res-header-id\"><b>Generated Narrative: PractitionerRole practitionerrole-henry-seven</b></p><a name=\"practitionerrole-henry-seven\"> </a><a name=\"hcpractitionerrole-henry-seven\"> </a><a name=\"practitionerrole-henry-seven-en-US\"> </a><div style=\"display: inline-block; background-color: #d9e0e7; padding: 6px; margin: 4px; border: 1px solid #8da1b4; border-radius: 5px; line-height: 60%\"><p style=\"margin-bottom: 0px\">version: 11; Last updated: 2021-08-17 08:00:32+0000; </p><p style=\"margin-bottom: 0px\">Information Source: #KJ942UxvfdYWoHCF</p><p style=\"margin-bottom: 0px\">Profile: <a href=\"StructureDefinition-us-ph-practitionerrole.html\">US Public Health PractitionerRole</a></p></div><p><b>identifier</b>: <a href=\"http://terminology.hl7.org/6.0.2/NamingSystem-npi.html\" title=\"National Provider Identifier\">United States National Provider Identifier</a>/9941339108</p><p><b>practitioner</b>: <a href=\"Practitioner-practitioner-us-core-henry-seven.html\">Henry Seven, MD</a></p><p><b>organization</b>: <a href=\"Organization-organization-ecr-salem-medical-center.html\">Salem Medical Center</a></p><p><b>code</b>: <span title=\"Codes:{http://nucc.org/provider-taxonomy 261QP2300X}\">Primary Care Clinic/Center</span></p><p><b>specialty</b>: <span title=\"Codes:{http://snomed.info/sct 419772000}\">Family practice</span></p><p><b>location</b>: <a href=\"Location-location-ecr-salem-medical-center.html\">Salem Medical Center</a></p><p><b>telecom</b>: <a href=\"mailto:henry.seven@example.com\">henry.seven@example.com</a></p></div>"},"identifier":[{"system":"http://hl7.org/fhir/sid/us-npi","value":"9941339108"}],"practitioner":{"reference":"Practitioner/practitioner-us-core-henry-seven","display":"Henry Seven, MD"},"organization":{"reference":"Organization/organization-ecr-salem-medical-center","display":"Salem Medical Center"},"code":[{"coding":[{"system":"http://nucc.org/provider-taxonomy","code":"261QP2300X","display":"Primary Care Clinic/Center"}]}],"specialty":[{"coding":[{"system":"http://snomed.info/sct","code":"419772000","display":"Family practice"}]}],"location":[{"reference":"Location/location-ecr-salem-medical-center","display":"Salem Medical Center"}],"telecom":[{"system":"email","value":"henry.seven@example.com"}]}},{"fullUrl":"http://example.org/fhir/Observation/observation-blood-pressure-eve-everywoman","resource":{"resourceType":"Observation","id":"observation-blood-pressure-eve-everywoman","meta":{"versionId":"2","lastUpdated":"2021-07-19T08:19:31.753+00:00","source":"#2PjceWUbU0gCYVZA","profile":["http://hl7.org/fhir/us/core/StructureDefinition/us-core-blood-pressure"]},"text":{"status":"generated","div":"<div xmlns=\"http://www.w3.org/1999/xhtml\"><a name=\"Observation_observation-blood-pressure-eve-everywoman\"> </a><p class=\"res-header-id\"><b>Generated Narrative: Observation observation-blood-pressure-eve-everywoman</b></p><a name=\"observation-blood-pressure-eve-everywoman\"> </a><a name=\"hcobservation-blood-pressure-eve-everywoman\"> </a><a name=\"observation-blood-pressure-eve-everywoman-en-US\"> </a><div style=\"display: inline-block; background-color: #d9e0e7; padding: 6px; margin: 4px; border: 1px solid #8da1b4; border-radius: 5px; line-height: 60%\"><p style=\"margin-bottom: 0px\">version: 2; Last updated: 2021-07-19 08:19:31+0000; </p><p style=\"margin-bottom: 0px\">Information Source: #2PjceWUbU0gCYVZA</p><p style=\"margin-bottom: 0px\">Profile: <a href=\"http://hl7.org/fhir/us/core/STU4/StructureDefinition-us-core-blood-pressure.html\">US Core Blood Pressure Profile</a></p></div><p><b>status</b>: Final</p><p><b>category</b>: <span title=\"Codes:{http://terminology.hl7.org/CodeSystem/observation-category vital-signs}\">Vital Signs</span></p><p><b>code</b>: <span title=\"Codes:{http://loinc.org 85354-9}\">Blood pressure systolic and diastolic</span></p><p><b>subject</b>: <a href=\"Patient-patient-ecr-eve-everywoman.html\">Eve Everywoman</a></p><p><b>encounter</b>: GP Visit</p><p><b>effective</b>: 2020-07-02</p><blockquote><p><b>component</b></p><p><b>code</b>: <span title=\"Codes:{http://loinc.org 8480-6}\">Systolic blood pressure</span></p><p><b>value</b>: 109 mmHg<span style=\"background: LightGoldenRodYellow\"> (Details: UCUM  codemm[Hg] = 'mm[Hg]')</span></p></blockquote><blockquote><p><b>component</b></p><p><b>code</b>: <span title=\"Codes:{http://loinc.org 8462-4}\">Diastolic blood pressure</span></p><p><b>value</b>: 44 mmHg<span style=\"background: LightGoldenRodYellow\"> (Details: UCUM  codemm[Hg] = 'mm[Hg]')</span></p></blockquote></div>"},"status":"final","category":[{"coding":[{"system":"http://terminology.hl7.org/CodeSystem/observation-category","code":"vital-signs","display":"Vital Signs"}],"text":"Vital Signs"}],"code":{"coding":[{"system":"http://loinc.org","code":"85354-9","display":"Blood pressure panel with all children optional"}],"text":"Blood pressure systolic and diastolic"},"subject":{"reference":"Patient/patient-ecr-eve-everywoman","display":"Eve Everywoman"},"encounter":{"display":"GP Visit"},"effectiveDateTime":"2020-07-02","component":[{"code":{"coding":[{"system":"http://loinc.org","code":"8480-6","display":"Systolic blood pressure"}],"text":"Systolic blood pressure"},"valueQuantity":{"value":109,"unit":"mmHg","system":"http://unitsofmeasure.org","code":"mm[Hg]"}},{"code":{"coding":[{"system":"http://loinc.org","code":"8462-4","display":"Diastolic blood pressure"}],"text":"Diastolic blood pressure"},"valueQuantity":{"value":44,"unit":"mmHg","system":"http://unitsofmeasure.org","code":"mm[Hg]"}}]}},{"fullUrl":"http://example.org/fhir/Observation/observation-us-ph-exposure-contact-info-football-game","resource":{"resourceType":"Observation","id":"observation-us-ph-exposure-contact-info-football-game","meta":{"versionId":"4","lastUpdated":"2020-12-01T07:17:32.073+00:00","source":"#pMvWUdCWz4XOnrDf","profile":["http://hl7.org/fhir/us/ecr/StructureDefinition/us-ph-exposure-contact-information"]},"text":{"status":"generated","div":"<div xmlns=\"http://www.w3.org/1999/xhtml\"><a name=\"Observation_observation-us-ph-exposure-contact-info-football-game\"> </a><p class=\"res-header-id\"><b>Generated Narrative: Observation observation-us-ph-exposure-contact-info-football-game</b></p><a name=\"observation-us-ph-exposure-contact-info-football-game\"> </a><a name=\"hcobservation-us-ph-exposure-contact-info-football-game\"> </a><a name=\"observation-us-ph-exposure-contact-info-football-game-en-US\"> </a><div style=\"display: inline-block; background-color: #d9e0e7; padding: 6px; margin: 4px; border: 1px solid #8da1b4; border-radius: 5px; line-height: 60%\"><p style=\"margin-bottom: 0px\">version: 4; Last updated: 2020-12-01 07:17:32+0000; </p><p style=\"margin-bottom: 0px\">Information Source: #pMvWUdCWz4XOnrDf</p><p style=\"margin-bottom: 0px\">Profile: <a href=\"StructureDefinition-us-ph-exposure-contact-information.html\">US Public Health Exposure Contact Information</a></p></div><p><b>status</b>: Final</p><p><b>category</b>: <span title=\"Codes:{http://terminology.hl7.org/CodeSystem/v3-ActClass EXPOS}\">An interaction between entities that provides opportunity for transmission of a physical, chemical, or biological agent from an exposure source entity to an exposure target entity.</span></p><p><b>code</b>: <span title=\"Codes:{http://terminology.hl7.org/CodeSystem/umls C3841750}\">Mass gathering (football game)</span></p><p><b>subject</b>: <a href=\"Patient-patient-ecr-eve-everywoman.html\">Eve Everywoman</a></p><p><b>focus</b>: <a href=\"Location-location-ecr-city-football-stadium.html\">City Football Stadium</a></p><p><b>effective</b>: 2020-01-11 18:00:00+0000 --&gt; 2020-01-11 21:30:00+0000</p><p><b>value</b>: <span title=\"Codes:{http://snomed.info/sct 264379009}\">City Football Stadium</span></p></div>"},"status":"final","category":[{"coding":[{"system":"http://terminology.hl7.org/CodeSystem/v3-ActClass","code":"EXPOS","display":"exposure"}],"text":"An interaction between entities that provides opportunity for transmission of a physical, chemical, or biological agent from an exposure source entity to an exposure target entity."}],"code":{"coding":[{"system":"http://terminology.hl7.org/CodeSystem/umls","code":"C3841750","display":"Mass gathering"}],"text":"Mass gathering (football game)"},"subject":{"reference":"Patient/patient-ecr-eve-everywoman","display":"Eve Everywoman"},"focus":[{"reference":"Location/location-ecr-city-football-stadium","display":"City Football Stadium"}],"effectivePeriod":{"start":"2020-01-11T18:00:00Z","end":"2020-01-11T21:30:00Z"},"valueCodeableConcept":{"coding":[{"system":"http://snomed.info/sct","code":"264379009","display":"Sports stadium (environment)"}],"text":"City Football Stadium"}}},{"fullUrl":"http://example.org/fhir/Observation/observation-travel-history-eve-everywoman-201801","resource":{"resourceType":"Observation","id":"observation-travel-history-eve-everywoman-201801","meta":{"versionId":"9","lastUpdated":"2021-08-17T07:59:01.126+00:00","source":"#d6PrWfFFuxUIiLtX","profile":["http://hl7.org/fhir/us/ecr/StructureDefinition/us-ph-travel-history"]},"text":{"status":"generated","div":"<div xmlns=\"http://www.w3.org/1999/xhtml\"><a name=\"Observation_observation-travel-history-eve-everywoman-201801\"> </a><p class=\"res-header-id\"><b>Generated Narrative: Observation observation-travel-history-eve-everywoman-201801</b></p><a name=\"observation-travel-history-eve-everywoman-201801\"> </a><a name=\"hcobservation-travel-history-eve-everywoman-201801\"> </a><a name=\"observation-travel-history-eve-everywoman-201801-en-US\"> </a><div style=\"display: inline-block; background-color: #d9e0e7; padding: 6px; margin: 4px; border: 1px solid #8da1b4; border-radius: 5px; line-height: 60%\"><p style=\"margin-bottom: 0px\">version: 9; Last updated: 2021-08-17 07:59:01+0000; </p><p style=\"margin-bottom: 0px\">Information Source: #d6PrWfFFuxUIiLtX</p><p style=\"margin-bottom: 0px\">Profile: <a href=\"StructureDefinition-us-ph-travel-history.html\">US Public Health Travel History</a></p></div><p><b>status</b>: Final</p><p><b>code</b>: <span title=\"Codes:{http://snomed.info/sct 420008001}\">Travel History</span></p><p><b>subject</b>: <a href=\"Patient-patient-ecr-eve-everywoman.html\">Eve Everywoman</a></p><p><b>effective</b>: 2018-01-15 --&gt; 2018-01-30</p><blockquote><p><b>component</b></p><p><b>code</b>: <span title=\"Codes:{http://terminology.hl7.org/CodeSystem/v3-ParticipationType LOC}\">Location</span></p><p><b>value</b>: <span title=\"Codes:{urn:iso:std:iso:3166 FJI}\">Fiji</span></p></blockquote><blockquote><p><b>component</b></p><p><b>code</b>: <span title=\"Codes:{http://terminology.hl7.org/CodeSystem/v3-ParticipationType LOC}\">Location</span></p><p><b>value</b>: <span title=\"Codes:{urn:oid:1.0.3166.1 VUT}\">Vanuatu</span></p></blockquote><blockquote><p><b>component</b></p><p><b>code</b>: <span title=\"Codes:{http://snomed.info/sct 280147009}\">Type of activity (attribute)</span></p><p><b>value</b>: <span title=\"Codes:{http://snomed.info/sct 702348006}\">Active duty military (occupation)</span></p></blockquote></div>"},"status":"final","code":{"coding":[{"system":"http://snomed.info/sct","code":"420008001","display":"Travel"}],"text":"Travel History"},"subject":{"reference":"Patient/patient-ecr-eve-everywoman","display":"Eve Everywoman"},"effectivePeriod":{"start":"2018-01-15","end":"2018-01-30"},"component":[{"code":{"coding":[{"system":"http://terminology.hl7.org/CodeSystem/v3-ParticipationType","code":"LOC","display":"Location"}]},"valueCodeableConcept":{"coding":[{"system":"urn:iso:std:iso:3166","code":"FJI","display":"Fiji"}]}},{"code":{"coding":[{"system":"http://terminology.hl7.org/CodeSystem/v3-ParticipationType","code":"LOC","display":"Location"}]},"valueCodeableConcept":{"coding":[{"system":"urn:oid:1.0.3166.1","code":"VUT","display":"Vanuatu"}]}},{"code":{"coding":[{"system":"http://snomed.info/sct","code":"280147009","display":"Type of activity (attribute)"}]},"valueCodeableConcept":{"coding":[{"system":"http://snomed.info/sct","code":"702348006","display":"Active duty military (occupation)"}]}}]}},{"fullUrl":"http://example.org/fhir/Observation/observation-disability-status-eve-everywoman","resource":{"resourceType":"Observation","id":"observation-disability-status-eve-everywoman","meta":{"versionId":"2","lastUpdated":"2021-06-30T05:33:12.487+00:00","source":"#AVCvf6gXu6hyNuWr","profile":["http://hl7.org/fhir/us/ecr/StructureDefinition/us-ph-disability-status"]},"text":{"status":"generated","div":"<div xmlns=\"http://www.w3.org/1999/xhtml\"><a name=\"Observation_observation-disability-status-eve-everywoman\"> </a><p class=\"res-header-id\"><b>Generated Narrative: Observation observation-disability-status-eve-everywoman</b></p><a name=\"observation-disability-status-eve-everywoman\"> </a><a name=\"hcobservation-disability-status-eve-everywoman\"> </a><a name=\"observation-disability-status-eve-everywoman-en-US\"> </a><div style=\"display: inline-block; background-color: #d9e0e7; padding: 6px; margin: 4px; border: 1px solid #8da1b4; border-radius: 5px; line-height: 60%\"><p style=\"margin-bottom: 0px\">version: 2; Last updated: 2021-06-30 05:33:12+0000; </p><p style=\"margin-bottom: 0px\">Information Source: #AVCvf6gXu6hyNuWr</p><p style=\"margin-bottom: 0px\">Profile: <a href=\"StructureDefinition-us-ph-disability-status.html\">US Public Health Disability Status</a></p></div><p><b>status</b>: Final</p><p><b>code</b>: <span title=\"Codes:{http://loinc.org 69856-3}\">Are you deaf, or do you have serious difficulty hearing</span></p><p><b>subject</b>: <a href=\"Patient-patient-ecr-eve-everywoman.html\">Eve Everywoman</a></p><p><b>effective</b>: 2020-11-10 22:33:22+0000</p><p><b>value</b>: true</p></div>"},"status":"final","code":{"coding":[{"system":"http://loinc.org","code":"69856-3","display":"Are you deaf, or do you have serious difficulty hearing"}]},"subject":{"reference":"Patient/patient-ecr-eve-everywoman","display":"Eve Everywoman"},"effectiveDateTime":"2020-11-10T22:33:22Z","valueBoolean":true}},{"fullUrl":"http://example.org/fhir/Observation/observation-us-ph-lab-result-eve-everywoman-lymphocytes","resource":{"resourceType":"Observation","id":"observation-us-ph-lab-result-eve-everywoman-lymphocytes","meta":{"profile":["http://hl7.org/fhir/us/ecr/StructureDefinition/us-ph-lab-result-observation"]},"text":{"status":"generated","div":"<div xmlns=\"http://www.w3.org/1999/xhtml\"><a name=\"Observation_observation-us-ph-lab-result-eve-everywoman-lymphocytes\"> </a><p class=\"res-header-id\"><b>Generated Narrative: Observation observation-us-ph-lab-result-eve-everywoman-lymphocytes</b></p><a name=\"observation-us-ph-lab-result-eve-everywoman-lymphocytes\"> </a><a name=\"hcobservation-us-ph-lab-result-eve-everywoman-lymphocytes\"> </a><a name=\"observation-us-ph-lab-result-eve-everywoman-lymphocytes-en-US\"> </a><p><b>status</b>: Final</p><p><b>category</b>: <span title=\"Codes:{http://terminology.hl7.org/CodeSystem/observation-category laboratory}\">Laboratory</span></p><p><b>code</b>: <span title=\"Codes:{http://loinc.org 731-0}\">Lymphocytes [#/volume] in Blood by Automated count</span></p><p><b>subject</b>: <a href=\"Patient-patient-ecr-eve-everywoman.html\">Eve Everywoman</a></p><p><b>effective</b>: 2018-03-07</p><p><b>value</b>: 5.2 10*3/uL<span style=\"background: LightGoldenRodYellow\"> (Details: UCUM  code10*3/uL = '10*3/uL')</span></p><p><b>interpretation</b>: <span title=\"Codes:{http://terminology.hl7.org/CodeSystem/v3-ObservationInterpretation H}\">High</span></p><h3>ReferenceRanges</h3><table class=\"grid\"><tr><td style=\"display: none\">-</td><td><b>Low</b></td><td><b>High</b></td></tr><tr><td style=\"display: none\">*</td><td>1 10*3/uL<span style=\"background: LightGoldenRodYellow\"> (Details: UCUM  code10*3/uL = '10*3/uL')</span></td><td>4.8 10*3/uL<span style=\"background: LightGoldenRodYellow\"> (Details: UCUM  code10*3/uL = '10*3/uL')</span></td></tr></table></div>"},"status":"final","category":[{"coding":[{"system":"http://terminology.hl7.org/CodeSystem/observation-category","code":"laboratory","display":"Laboratory"}],"text":"Laboratory"}],"code":{"coding":[{"system":"http://loinc.org","code":"731-0","display":"Lymphocytes [#/volume] in Blood by Automated count"}]},"subject":{"reference":"Patient/patient-ecr-eve-everywoman","display":"Eve Everywoman"},"effectiveDateTime":"2018-03-07","valueQuantity":{"value":5.2,"system":"http://unitsofmeasure.org","code":"10*3/uL"},"interpretation":[{"coding":[{"system":"http://terminology.hl7.org/CodeSystem/v3-ObservationInterpretation","code":"H","display":"High"}]}],"referenceRange":[{"low":{"value":1,"system":"http://unitsofmeasure.org","code":"10*3/uL"},"high":{"value":4.8,"system":"http://unitsofmeasure.org","code":"10*3/uL"}}]}},{"fullUrl":"http://example.org/fhir/Organization/organization-ecr-acme-laboratory","resource":{"resourceType":"Organization","id":"organization-ecr-acme-laboratory","meta":{"versionId":"4","lastUpdated":"2021-06-30T04:13:19.329+00:00","source":"#xp7CXcY2lPaNsDQL","profile":["http://hl7.org/fhir/us/ecr/StructureDefinition/us-ph-organization"]},"text":{"status":"generated","div":"<div xmlns=\"http://www.w3.org/1999/xhtml\"><a name=\"Organization_organization-ecr-acme-laboratory\"> </a><p class=\"res-header-id\"><b>Generated Narrative: Organization organization-ecr-acme-laboratory</b></p><a name=\"organization-ecr-acme-laboratory\"> </a><a name=\"hcorganization-ecr-acme-laboratory\"> </a><a name=\"organization-ecr-acme-laboratory-en-US\"> </a><div style=\"display: inline-block; background-color: #d9e0e7; padding: 6px; margin: 4px; border: 1px solid #8da1b4; border-radius: 5px; line-height: 60%\"><p style=\"margin-bottom: 0px\">version: 4; Last updated: 2021-06-30 04:13:19+0000; </p><p style=\"margin-bottom: 0px\">Information Source: #xp7CXcY2lPaNsDQL</p><p style=\"margin-bottom: 0px\">Profile: <a href=\"StructureDefinition-us-ph-organization.html\">US Public Health Organization</a></p></div><p><b>identifier</b>: <code>http://hl7.org.fhir/sid/us-npi</code>/1144221999</p><p><b>active</b>: true</p><p><b>type</b>: <span title=\"Codes:{http://terminology.hl7.org/CodeSystem/v3-RoleCode OUTLAB}\">outpatient laboratory</span></p><p><b>name</b>: Acme_Labs</p><p><b>telecom</b>: <a href=\"tel:+1-555-555-4444\">+1-555-555-4444</a>, <a href=\"mailto:mail@acme-labs.com\">mail@acme-labs.com</a></p><p><b>address</b>: 7777 Laboratory Drive Ann Arbor MI 99999 </p></div>"},"identifier":[{"system":"http://hl7.org.fhir/sid/us-npi","value":"1144221999"}],"active":true,"type":[{"coding":[{"system":"http://terminology.hl7.org/CodeSystem/v3-RoleCode","code":"OUTLAB","display":"outpatient laboratory"}]}],"name":"Acme_Labs","telecom":[{"system":"phone","value":"+1-555-555-4444"},{"system":"email","value":"mail@acme-labs.com"}],"address":[{"line":["7777 Laboratory Drive"],"city":"Ann Arbor","state":"MI","postalCode":"99999"}]}},{"fullUrl":"http://example.org/fhir/Location/location-ecr-salem-medical-center","resource":{"resourceType":"Location","id":"location-ecr-salem-medical-center","meta":{"versionId":"6","lastUpdated":"2021-08-17T07:53:02.099+00:00","source":"#VI2Nm5Ps5HqZ5HXV","profile":["http://hl7.org/fhir/us/ecr/StructureDefinition/us-ph-location"]},"text":{"status":"generated","div":"<div xmlns=\"http://www.w3.org/1999/xhtml\"><a name=\"Location_location-ecr-salem-medical-center\"> </a><p class=\"res-header-id\"><b>Generated Narrative: Location location-ecr-salem-medical-center</b></p><a name=\"location-ecr-salem-medical-center\"> </a><a name=\"hclocation-ecr-salem-medical-center\"> </a><a name=\"location-ecr-salem-medical-center-en-US\"> </a><div style=\"display: inline-block; background-color: #d9e0e7; padding: 6px; margin: 4px; border: 1px solid #8da1b4; border-radius: 5px; line-height: 60%\"><p style=\"margin-bottom: 0px\">version: 6; Last updated: 2021-08-17 07:53:02+0000; </p><p style=\"margin-bottom: 0px\">Information Source: #VI2Nm5Ps5HqZ5HXV</p><p style=\"margin-bottom: 0px\">Profile: <a href=\"StructureDefinition-us-ph-location.html\">US Public Health Location</a></p></div><p><b>identifier</b>: <code>http://hl7.org.fhir/sid/us-npi</code>/1144221995</p><p><b>status</b>: Active</p><p><b>name</b>: Clinic Bldg A, Salem Medical Center</p><p><b>type</b>: <span title=\"Codes:{http://terminology.hl7.org/CodeSystem/v3-RoleCode HOSP}\">Hospital</span></p><p><b>telecom</b>: ph: (+1) (555)555-3001, fax: (+1) (555)555-3002, <a href=\"mailto:mail@smc.org\">mail@smc.org</a></p><p><b>address</b>: Clinic Bldg A 4444 Healthcare Drive Ann Arbor MI 99999 </p><p><b>managingOrganization</b>: <a href=\"Organization-organization-ecr-salem-medical-center.html\">Organization Salem Medical Center</a></p></div>"},"identifier":[{"system":"http://hl7.org.fhir/sid/us-npi","value":"1144221995"}],"status":"active","name":"Clinic Bldg A, Salem Medical Center","type":[{"coding":[{"system":"http://terminology.hl7.org/CodeSystem/v3-RoleCode","code":"HOSP","display":"Hospital"}]}],"telecom":[{"system":"phone","value":"(+1) (555)555-3001"},{"system":"fax","value":"(+1) (555)555-3002"},{"system":"email","value":"mail@smc.org"}],"address":{"line":["Clinic Bldg A","4444 Healthcare Drive"],"city":"Ann Arbor","state":"MI","postalCode":"99999"},"managingOrganization":{"reference":"Organization/organization-ecr-salem-medical-center"}}},{"fullUrl":"http://example.org/fhir/Location/location-ecr-city-football-stadium","resource":{"resourceType":"Location","id":"location-ecr-city-football-stadium","meta":{"versionId":"1","lastUpdated":"2020-12-01T01:55:32.705+00:00","source":"#KLUFk4w6CXKqrFEC","profile":["http://hl7.org/fhir/us/core/StructureDefinition/us-core-location"]},"text":{"status":"generated","div":"<div xmlns=\"http://www.w3.org/1999/xhtml\"><a name=\"Location_location-ecr-city-football-stadium\"> </a><p class=\"res-header-id\"><b>Generated Narrative: Location location-ecr-city-football-stadium</b></p><a name=\"location-ecr-city-football-stadium\"> </a><a name=\"hclocation-ecr-city-football-stadium\"> </a><a name=\"location-ecr-city-football-stadium-en-US\"> </a><div style=\"display: inline-block; background-color: #d9e0e7; padding: 6px; margin: 4px; border: 1px solid #8da1b4; border-radius: 5px; line-height: 60%\"><p style=\"margin-bottom: 0px\">version: 1; Last updated: 2020-12-01 01:55:32+0000; </p><p style=\"margin-bottom: 0px\">Information Source: #KLUFk4w6CXKqrFEC</p><p style=\"margin-bottom: 0px\">Profile: <a href=\"http://hl7.org/fhir/us/core/STU4/StructureDefinition-us-core-location.html\">US Core Location Profile</a></p></div><p><b>status</b>: Active</p><p><b>name</b>: City Football Stadium</p><p><b>type</b>: <span title=\"Codes:{http://snomed.info/sct 264379009}\">City Football Stadium</span></p><p><b>address</b>: 99 Football Stadium Road My City AZ 8562 </p></div>"},"status":"active","name":"City Football Stadium","type":[{"coding":[{"system":"http://snomed.info/sct","code":"264379009","display":"Sports stadium (environment)"}],"text":"City Football Stadium"}],"address":{"line":["99 Football Stadium Road"],"city":"My City","state":"AZ","postalCode":"8562"}}},{"fullUrl":"http://example.org/fhir/Organization/organization-ecr-salem-medical-center","resource":{"resourceType":"Organization","id":"organization-ecr-salem-medical-center","meta":{"versionId":"5","lastUpdated":"2021-06-30T04:13:19.345+00:00","source":"#xa4yJZjn68xVavoM","profile":["http://hl7.org/fhir/us/ecr/StructureDefinition/us-ph-organization"]},"text":{"status":"generated","div":"<div xmlns=\"http://www.w3.org/1999/xhtml\"><a name=\"Organization_organization-ecr-salem-medical-center\"> </a><p class=\"res-header-id\"><b>Generated Narrative: Organization organization-ecr-salem-medical-center</b></p><a name=\"organization-ecr-salem-medical-center\"> </a><a name=\"hcorganization-ecr-salem-medical-center\"> </a><a name=\"organization-ecr-salem-medical-center-en-US\"> </a><div style=\"display: inline-block; background-color: #d9e0e7; padding: 6px; margin: 4px; border: 1px solid #8da1b4; border-radius: 5px; line-height: 60%\"><p style=\"margin-bottom: 0px\">version: 5; Last updated: 2021-06-30 04:13:19+0000; </p><p style=\"margin-bottom: 0px\">Information Source: #xa4yJZjn68xVavoM</p><p style=\"margin-bottom: 0px\">Profile: <a href=\"StructureDefinition-us-ph-organization.html\">US Public Health Organization</a></p></div><p><b>identifier</b>: <code>http://hl7.org.fhir/sid/us-npi</code>/55555555</p><p><b>active</b>: true</p><p><b>name</b>: Salem Medical Center</p><p><b>telecom</b>: <a href=\"tel:+1-555-555-1111\">+1-555-555-1111</a>, <a href=\"mailto:mail@salemmedicalcenter.com\">mail@salemmedicalcenter.com</a></p><p><b>address</b>: 22222 Health Authority Drive Ann Arbor MI 99999 </p></div>"},"identifier":[{"system":"http://hl7.org.fhir/sid/us-npi","value":"55555555"}],"active":true,"name":"Salem Medical Center","telecom":[{"system":"phone","value":"+1-555-555-1111"},{"system":"email","value":"mail@salemmedicalcenter.com"}],"address":[{"line":["22222 Health Authority Drive"],"city":"Ann Arbor","state":"MI","postalCode":"99999"}]}},{"fullUrl":"http://example.org/fhir/Condition/condition-eicr-eve-everywoman-zika","resource":{"resourceType":"Condition","id":"condition-eicr-eve-everywoman-zika","meta":{"versionId":"5","lastUpdated":"2021-07-15T01:54:14.835+00:00","source":"#rM2Pw6getjoE2UTV"},"text":{"status":"generated","div":"<div xmlns=\"http://www.w3.org/1999/xhtml\"><a name=\"Condition_condition-eicr-eve-everywoman-zika\"> </a><p class=\"res-header-id\"><b>Generated Narrative: Condition condition-eicr-eve-everywoman-zika</b></p><a name=\"condition-eicr-eve-everywoman-zika\"> </a><a name=\"hccondition-eicr-eve-everywoman-zika\"> </a><a name=\"condition-eicr-eve-everywoman-zika-en-US\"> </a><div style=\"display: inline-block; background-color: #d9e0e7; padding: 6px; margin: 4px; border: 1px solid #8da1b4; border-radius: 5px; line-height: 60%\"><p style=\"margin-bottom: 0px\">version: 5; Last updated: 2021-07-15 01:54:14+0000; </p><p style=\"margin-bottom: 0px\">Information Source: #rM2Pw6getjoE2UTV</p></div><p><b>category</b>: <span title=\"Codes:{http://terminology.hl7.org/CodeSystem/condition-category encounter-diagnosis}\">Encounter Diagnosis</span></p><p><b>code</b>: <span title=\"Codes:{http://snomed.info/sct 3928002}\">Zika virus disease (disorder)</span></p><p><b>subject</b>: <a href=\"Patient-patient-ecr-eve-everywoman.html\">Eve Everywoman</a></p><p><b>onset</b>: 2017-08-23</p><p><b>asserter</b>: <a href=\"Practitioner-practitioner-us-core-henry-seven.html\">Henry Seven, MD</a></p></div>"},"category":[{"coding":[{"system":"http://terminology.hl7.org/CodeSystem/condition-category","code":"encounter-diagnosis","display":"Encounter Diagnosis"}]}],"code":{"coding":[{"system":"http://snomed.info/sct","code":"3928002","display":"Zika virus disease (disorder)"}]},"subject":{"reference":"Patient/patient-ecr-eve-everywoman","display":"Eve Everywoman"},"onsetDateTime":"2017-08-23","asserter":{"reference":"Practitioner/practitioner-us-core-henry-seven","display":"Henry Seven, MD"}}},{"fullUrl":"http://example.org/fhir/Practitioner/practitioner-us-core-henry-seven","resource":{"resourceType":"Practitioner","id":"practitioner-us-core-henry-seven","meta":{"versionId":"5","lastUpdated":"2021-08-17T08:00:32.356+00:00","source":"#2MfA6kIjmOmtAlIb","profile":["http://hl7.org/fhir/us/core/StructureDefinition/us-core-practitioner"]},"text":{"status":"generated","div":"<div xmlns=\"http://www.w3.org/1999/xhtml\"><a name=\"Practitioner_practitioner-us-core-henry-seven\"> </a><p class=\"res-header-id\"><b>Generated Narrative: Practitioner practitioner-us-core-henry-seven</b></p><a name=\"practitioner-us-core-henry-seven\"> </a><a name=\"hcpractitioner-us-core-henry-seven\"> </a><a name=\"practitioner-us-core-henry-seven-en-US\"> </a><div style=\"display: inline-block; background-color: #d9e0e7; padding: 6px; margin: 4px; border: 1px solid #8da1b4; border-radius: 5px; line-height: 60%\"><p style=\"margin-bottom: 0px\">version: 5; Last updated: 2021-08-17 08:00:32+0000; </p><p style=\"margin-bottom: 0px\">Information Source: #2MfA6kIjmOmtAlIb</p><p style=\"margin-bottom: 0px\">Profile: <a href=\"http://hl7.org/fhir/us/core/STU4/StructureDefinition-us-core-practitioner.html\">US Core Practitioner Profile</a></p></div><p><b>identifier</b>: <a href=\"http://terminology.hl7.org/6.0.2/NamingSystem-npi.html\" title=\"National Provider Identifier\">United States National Provider Identifier</a>/9941339108</p><p><b>name</b>: Seven Henry </p><p><b>telecom</b>: <a href=\"mailto:henry.seven@example.com\">henry.seven@example.com</a></p><p><b>address</b>: BMass Doctors 2100 North Ave Burlington MA 02368 US </p></div>"},"identifier":[{"system":"http://hl7.org/fhir/sid/us-npi","value":"9941339108"}],"name":[{"family":"Henry","given":["Seven"],"suffix":["M.D."]}],"telecom":[{"system":"email","value":"henry.seven@example.com"}],"address":[{"line":["BMass Doctors","2100 North Ave"],"city":"Burlington","state":"MA","postalCode":"02368","country":"US"}]}},{"fullUrl":"http://example.org/fhir/Device/device-ecmo","resource":{"resourceType":"Device","id":"device-ecmo","meta":{"versionId":"3","lastUpdated":"2021-06-30T07:22:44.658+00:00","source":"#WUV2SWqz3ej775gd"},"text":{"status":"generated","div":"<div xmlns=\"http://www.w3.org/1999/xhtml\">\n                        <p>\n                            <b>Manually Created Narrative</b>\n                        </p>\n                        <h3>UDI</h3>\n                        <p>\n                            <b>Device Identifier</b>: 99863313444317 </p>\n                        <p>\n                            <b>CarrierHRF</b>: (01)99863313444316(17)220101(10)M320(21)AC222 </p>\n                        <p>\n                            <b>EntryType</b>: rfid </p>\n                        <p>\n                            <b>Name</b>: ACME Extracorporeal membrane oxygenator </p>\n                        <p>\n                            <b>Type</b>: udi-label-name </p>\n                        <p>\n                            <b>status</b>: active </p>\n                        <p>\n                            <b>manufacturer</b>: ACME Biomedical </p>\n                        <p>\n                            <b>expirationDate</b>: 2024-01-01 </p>\n                        <p>\n                            <b>lotNumber</b>: M321 </p>\n                        <p>\n                            <b>serialNumber</b>: AC222 </p>\n                        <p>\n                            <b>modelNumber</b>: 4.0 </p>\n                        <p>\n                            <b>patient</b>: <a href=\"Patient-patient-ecr-eve-everywoman.html\">Eve Everywoman. Generated Summary: Medical Record Number: 1032702 (USUAL); active; Eve L Everywoman ; Phone:\n                                1-(404)555-1212, eve.everywoman@example.com; gender: female; birthDate: 1974-11-24</a>\n                        </p>\n                    </div>"},"udiCarrier":[{"deviceIdentifier":"99863313444316","carrierHRF":"(01)99863313444316(17)220101(10)M320(21)AC222","entryType":"rfid"}],"status":"active","manufacturer":"ACME Biomedical","expirationDate":"2022-01-01","lotNumber":"M320","serialNumber":"AC222","deviceName":[{"name":"ACME Extracorporeal membrane oxygenator","type":"udi-label-name"}],"modelNumber":"4.0","type":{"coding":[{"system":"http://snomed.info/sct","code":"469244005","display":"Extracorporeal membrane oxygenator (physical object)"}],"text":"Extracorporeal membrane oxygenator (physical object)"},"patient":{"reference":"Patient/patient-ecr-eve-everywoman","display":"Eve Everywoman"}}}]}