{
  "resource": {
    "resourceType": "Bundle",
    "id": "e17a14ac-a070-47f4-ad33-4da12ffcdc51",
    "meta": {
      "versionId": "1",
      "lastUpdated": "2022-01-12T15:01:47.910+00:00",
      "profile": [
        "http://hl7.org/fhir/us/medmorph/StructureDefinition/us-ph-content-bundle"
      ]
    },
    "type": "collection",
    "timestamp": "2022-01-12T15:01:47.910+00:00",
    "entry": [
      {
        "resource": {
          "resourceType": "Patient",
          "id": "12771720",
          "meta": {
            "versionId": "2",
            "lastUpdated": "2022-01-06T17:08:32.000Z"
          },
          "text": {
            "status": "generated",
            "div": "<div xmlns=\"http://www.w3.org/1999/xhtml\"><p><b>Patient</b></p><p><b>Name</b>: DOY, ZARLA MOON</p><p><b>Status</b>: Active</p><p><b>DOB</b>: Mar 22, 1954</p><p><b>Administrative Gender</b>: Female</p><p><b>Marital Status</b>: Unknown</p></div>"
          },
          "extension": [
            {
              "url": "http://hl7.org/fhir/us/core/StructureDefinition/us-core-race",
              "extension": [
                {
                  "url": "ombCategory",
                  "valueCoding": {
                    "system": "urn:oid:2.16.840.1.113883.6.238",
                    "code": "1002-5",
                    "display": "American Indian or Alaska Native",
                    "userSelected": false
                  }
                },
                {
                  "url": "text",
                  "valueString": "Abenaki"
                }
              ]
            },
            {
              "url": "http://hl7.org/fhir/us/core/StructureDefinition/us-core-ethnicity",
              "extension": [
                {
                  "url": "ombCategory",
                  "valueCoding": {
                    "system": "urn:oid:2.16.840.1.113883.6.238",
                    "code": "2135-2",
                    "display": "Hispanic or Latino",
                    "userSelected": false
                  }
                },
                {
                  "url": "text",
                  "valueString": "Hispanic, Latino, or Spanish Origin"
                }
              ]
            }
          ],
          "identifier": [
            {
              "id": "CI-490531646-0",
              "use": "usual",
              "type": {
                "coding": [
                  {
                    "system": "https://fhir.cerner.com/ec2458f2-1e24-41c8-b71b-0e701af7583d/codeSet/4",
                    "code": "2",
                    "display": "Community Medical Record Number",
                    "userSelected": true
                  },
                  {
                    "system": "http://terminology.hl7.org/CodeSystem/v2-0203",
                    "code": "MR",
                    "display": "Medical record number",
                    "userSelected": false
                  }
                ],
                "text": "Community Medical Record Number"
              },
              "system": "urn:oid:2.16.840.1.113883.3.787.0.0",
              "value": "23961",
              "_value": {
                "extension": [
                  {
                    "url": "http://hl7.org/fhir/StructureDefinition/rendered-value",
                    "valueString": "23961"
                  }
                ]
              },
              "period": {
                "start": "2022-01-06T17:04:00.000Z"
              }
            },
            {
              "id": "CI-490531642-1",
              "use": "usual",
              "type": {
                "coding": [
                  {
                    "system": "https://fhir.cerner.com/ec2458f2-1e24-41c8-b71b-0e701af7583d/codeSet/4",
                    "code": "10",
                    "display": "MRN",
                    "userSelected": true
                  },
                  {
                    "system": "http://terminology.hl7.org/CodeSystem/v2-0203",
                    "code": "MR",
                    "display": "Medical record number",
                    "userSelected": false
                  }
                ],
                "text": "MRN"
              },
              "system": "urn:oid:2.16.840.1.113883.6.1000",
              "value": "31965",
              "_value": {
                "extension": [
                  {
                    "url": "http://hl7.org/fhir/StructureDefinition/rendered-value",
                    "valueString": "00000031965"
                  }
                ]
              },
              "period": {
                "start": "2022-01-06T17:04:00.000Z"
              }
            },
            {
              "id": "CI-490531676-3",
              "use": "usual",
              "type": {
                "coding": [
                  {
                    "system": "https://fhir.cerner.com/ec2458f2-1e24-41c8-b71b-0e701af7583d/codeSet/4",
                    "code": "2553236785",
                    "display": "MIllennium Person Identifier",
                    "userSelected": true
                  }
                ],
                "text": "MIllennium Person Identifier"
              },
              "_system": {
                "extension": [
                  {
                    "url": "http://hl7.org/fhir/StructureDefinition/data-absent-reason",
                    "valueCode": "unknown"
                  }
                ]
              },
              "value": "40097",
              "_value": {
                "extension": [
                  {
                    "url": "http://hl7.org/fhir/StructureDefinition/rendered-value",
                    "valueString": "40097"
                  }
                ]
              },
              "period": {
                "start": "2022-01-06T17:04:02.000Z"
              }
            }
          ],
          "active": true,
          "name": [
            {
              "id": "CI-12771720-0",
              "use": "official",
              "text": "DOY, ZARLA MOON",
              "family": "DOY",
              "given": [
                "ZARLA",
                "MOON"
              ],
              "period": {
                "start": "2022-01-06T17:04:00.000Z"
              }
            }
          ],
          "telecom": [
            {
              "id": "CI-PH-29901680-0",
              "extension": [
                {
                  "url": "http://hl7.org/fhir/StructureDefinition/iso21090-TEL-address",
                  "valueUrl": "(616)676-5017"
                }
              ],
              "system": "phone",
              "value": "6166765017",
              "use": "home",
              "rank": 1,
              "period": {
                "start": "2022-01-06T17:04:00.000Z"
              }
            }
          ],
          "gender": "female",
          "birthDate": "1954-03-22",
          "address": [
            {
              "id": "CI-24404086-0",
              "use": "home",
              "text": "79 Roth Alley\nGrand Rapids, MI 49505\nUS",
              "line": [
                "79 Roth Alley"
              ],
              "city": "Grand Rapids",
              "state": "MI",
              "postalCode": "49505",
              "country": "US",
              "period": {
                "start": "2022-01-06T16:54:52.000Z"
              }
            }
          ],
          "maritalStatus": {
            "coding": [
              {
                "system": "https://fhir.cerner.com/ec2458f2-1e24-41c8-b71b-0e701af7583d/codeSet/38",
                "code": "309240",
                "display": "Unknown",
                "userSelected": true
              },
              {
                "system": "http://terminology.hl7.org/CodeSystem/v3-NullFlavor",
                "code": "UNK",
                "display": "unknown",
                "userSelected": false
              }
            ],
            "text": "Unknown"
          },
          "contact": [
            {
              "relationship": [
                {
                  "coding": [
                    {
                      "system": "https://fhir.cerner.com/ec2458f2-1e24-41c8-b71b-0e701af7583d/codeSet/351",
                      "code": "1153",
                      "display": "Family Member",
                      "userSelected": true
                    }
                  ],
                  "text": "Family Member"
                }
              ],
              "name": {
                "id": "CI-12746018-0",
                "use": "official",
                "text": "SHEPHERD, MEREDITH",
                "family": "SHEPHERD",
                "given": [
                  "MEREDITH"
                ],
                "period": {
                  "start": "2020-11-06T21:27:32.000Z"
                }
              },
              "telecom": [
                {
                  "extension": [
                    {
                      "url": "http://hl7.org/fhir/StructureDefinition/iso21090-TEL-address",
                      "valueUrl": "(205)555-1313"
                    }
                  ],
                  "system": "phone",
                  "value": "2055551313",
                  "use": "home",
                  "rank": 1,
                  "period": {
                    "start": "2020-11-06T21:27:32.000Z"
                  }
                },
                {
                  "system": "email",
                  "value": "shepherd2@yopmail.com",
                  "use": "home",
                  "rank": 1,
                  "period": {
                    "start": "2020-11-06T21:27:32.000Z"
                  }
                }
              ],
              "address": {
                "use": "home",
                "text": "111 Main Street\nSeattle, WA 98101\nUS",
                "line": [
                  "111 Main Street"
                ],
                "city": "Seattle",
                "state": "WA",
                "postalCode": "98101",
                "country": "US",
                "period": {
                  "start": "2020-11-06T21:16:55.000Z"
                }
              },
              "gender": "female",
              "period": {
                "start": "2022-01-06T17:04:00.000Z"
              }
            }
          ],
          "communication": [
            {
              "language": {
                "coding": [
                  {
                    "system": "https://fhir.cerner.com/ec2458f2-1e24-41c8-b71b-0e701af7583d/codeSet/36",
                    "code": "151",
                    "display": "English",
                    "userSelected": true
                  },
                  {
                    "system": "urn:ietf:bcp:47",
                    "code": "en",
                    "display": "English",
                    "userSelected": false
                  }
                ],
                "text": "English"
              },
              "preferred": true
            }
          ],
          "generalPractitioner": [
            {
              "id": "CI-490531662-0",
              "reference": "Practitioner/12771721",
              "display": "McGucken, Francoise"
            }
          ]
        }
      },
      {
        "resource": {
          "resourceType": "Encounter",
          "id": "97966949",
          "meta": {
            "versionId": "2",
            "lastUpdated": "2022-01-07T06:15:39.000Z"
          },
          "text": {
            "status": "generated",
            "div": "<div xmlns=\"http://www.w3.org/1999/xhtml\"><p><b>Encounter</b></p><p><b>Patient</b>: DOY, ZARLA MOON</p><p><b>Location</b>: Model Clinic 1, MX Clinic 1, MX Clinic 1</p><p><b>Type</b>: Clinic</p><p><b>Service Type</b>: Allergy</p><p><b>Class</b>: Outpatient</p><p><b>Status</b>: Finished</p><p><b>Period Start Date</b>: Jul 28, 2021  1:00 P.M. UTC</p><p><b>Period End Date</b>: Jul 29, 2021  4:59 A.M. UTC</p><p><b>Reason For Visit</b>: HealthCare Survey</p><p><b>Attending Physician</b>: McGucken, Francoise</p><p><b>Service Provider</b>: Model Clinic 1</p></div>"
          },
          "extension": [
            {
              "url": "https://fhir-ehr.cerner.com/r4/StructureDefinition/custom-attribute",
              "extension": [
                {
                  "id": "ENCNTR:3339151",
                  "url": "custom-attribute-name",
                  "valueString": "Previous Patient Type"
                },
                {
                  "url": "custom-attribute-value",
                  "valueCodeableConcept": {
                    "coding": [
                      {
                        "system": "https://fhir.cerner.com/ec2458f2-1e24-41c8-b71b-0e701af7583d/codeSet/71",
                        "code": "22282402",
                        "display": "Clinic",
                        "userSelected": true
                      }
                    ],
                    "text": "Clinic"
                  }
                }
              ]
            },
            {
              "url": "https://fhir-ehr.cerner.com/r4/StructureDefinition/custom-attribute",
              "extension": [
                {
                  "id": "ENCNTR:204298207",
                  "url": "custom-attribute-name",
                  "valueString": "Full Reg User ID"
                },
                {
                  "url": "custom-attribute-value",
                  "valueString": "PJ023467"
                }
              ]
            },
            {
              "url": "https://fhir-ehr.cerner.com/r4/StructureDefinition/custom-attribute",
              "extension": [
                {
                  "id": "ENCNTR:17368048",
                  "url": "custom-attribute-name",
                  "valueString": "Full Reg Date/Time"
                },
                {
                  "url": "custom-attribute-value",
                  "valueDateTime": "2022-01-06T17:00:06.000Z"
                }
              ]
            },
            {
              "url": "https://fhir-ehr.cerner.com/r4/StructureDefinition/custom-attribute",
              "extension": [
                {
                  "id": "ENCNTR:4047481",
                  "url": "custom-attribute-name",
                  "valueString": "Conversation"
                },
                {
                  "url": "custom-attribute-value",
                  "valueCodeableConcept": {
                    "coding": [
                      {
                        "system": "https://fhir.cerner.com/ec2458f2-1e24-41c8-b71b-0e701af7583d/codeSet/100040",
                        "code": "4630114",
                        "display": "Register Patient",
                        "userSelected": true
                      }
                    ],
                    "text": "Register Patient"
                  }
                }
              ]
            },
            {
              "url": "https://fhir-ehr.cerner.com/r4/StructureDefinition/custom-attribute",
              "extension": [
                {
                  "id": "ENCNTR:34310433",
                  "url": "custom-attribute-name",
                  "valueString": "Complete Reg?"
                },
                {
                  "url": "custom-attribute-value",
                  "valueCodeableConcept": {
                    "coding": [
                      {
                        "system": "https://fhir.cerner.com/ec2458f2-1e24-41c8-b71b-0e701af7583d/codeSet/20322",
                        "code": "3542949",
                        "display": "Yes",
                        "userSelected": true
                      }
                    ],
                    "text": "Yes"
                  }
                }
              ]
            },
            {
              "url": "https://fhir-ehr.cerner.com/r4/StructureDefinition/custom-attribute",
              "extension": [
                {
                  "id": "ENCNTR:684109",
                  "url": "custom-attribute-name",
                  "valueString": "Accident Related Visit"
                },
                {
                  "url": "custom-attribute-value",
                  "valueCodeableConcept": {
                    "coding": [
                      {
                        "system": "https://fhir.cerner.com/ec2458f2-1e24-41c8-b71b-0e701af7583d/codeSet/100700",
                        "code": "684155",
                        "display": "No",
                        "userSelected": true
                      }
                    ],
                    "text": "No"
                  }
                }
              ]
            },
            {
              "url": "https://fhir-ehr.cerner.com/r4/StructureDefinition/estimated-financial-responsibility-amount",
              "valueMoney": {
                "value": 0.0,
                "currency": "USD"
              }
            }
          ],
          "identifier": [
            {
              "use": "usual",
              "type": {
                "coding": [
                  {
                    "system": "https://fhir.cerner.com/ec2458f2-1e24-41c8-b71b-0e701af7583d/codeSet/319",
                    "code": "1077",
                    "display": "FIN NBR",
                    "userSelected": true
                  },
                  {
                    "system": "http://terminology.hl7.org/CodeSystem/v2-0203",
                    "code": "AN",
                    "display": "Account number",
                    "userSelected": false
                  }
                ],
                "text": "FIN NBR"
              },
              "system": "urn:oid:5.5.5.5.5.5.",
              "value": "22296",
              "period": {
                "start": "2022-01-06T17:04:00.000Z"
              }
            }
          ],
          "status": "finished",
          "class": {
            "system": "http://terminology.hl7.org/CodeSystem/v2-0004",
            "code": "O",
            "display": "Outpatient",
            "userSelected": false
          },
          "type": [
            {
              "coding": [
                {
                  "system": "https://fhir.cerner.com/ec2458f2-1e24-41c8-b71b-0e701af7583d/codeSet/71",
                  "code": "22282402",
                  "display": "Clinic",
                  "userSelected": true
                },
                {
                  "system": "http://snomed.info/sct",
                  "code": "308021002",
                  "display": "Seen in clinic (finding)",
                  "userSelected": false
                }
              ],
              "text": "Clinic"
            }
          ],
          "serviceType": {
            "coding": [
              {
                "system": "https://fhir.cerner.com/ec2458f2-1e24-41c8-b71b-0e701af7583d/codeSet/34",
                "code": "29307259",
                "display": "Allergy",
                "userSelected": true
              },
              {
                "system": "http://snomed.info/sct",
                "code": "711332004",
                "display": "Allergy service (qualifier value)",
                "userSelected": false
              }
            ],
            "text": "Allergy"
          },
          "priority": {
            "coding": [
              {
                "system": "https://fhir.cerner.com/ec2458f2-1e24-41c8-b71b-0e701af7583d/codeSet/3",
                "code": "670840",
                "display": "Elective",
                "userSelected": true
              },
              {
                "system": "http://terminology.hl7.org/CodeSystem/v3-ActPriority",
                "code": "EL",
                "display": "elective",
                "userSelected": false
              }
            ],
            "text": "Elective"
          },
          "subject": {
            "reference": "Patient/12771720",
            "display": "DOY, ZARLA MOON"
          },
          "participant": [
            {
              "type": [
                {
                  "coding": [
                    {
                      "system": "https://fhir.cerner.com/ec2458f2-1e24-41c8-b71b-0e701af7583d/codeSet/333",
                      "code": "1119",
                      "display": "Attending Physician",
                      "userSelected": true
                    },
                    {
                      "system": "http://terminology.hl7.org/CodeSystem/v3-ParticipationType",
                      "code": "ATND",
                      "display": "attender",
                      "userSelected": false
                    }
                  ],
                  "text": "Attending Physician"
                }
              ],
              "period": {
                "start": "2022-01-06T17:04:00.000Z"
              },
              "individual": {
                "reference": "Practitioner/12771721",
                "display": "McGucken, Francoise"
              }
            },
            {
              "type": [
                {
                  "coding": [
                    {
                      "system": "https://fhir.cerner.com/ec2458f2-1e24-41c8-b71b-0e701af7583d/codeSet/333",
                      "code": "1123",
                      "display": "Ordering Physician",
                      "userSelected": true
                    },
                    {
                      "system": "http://terminology.hl7.org/CodeSystem/v3-ParticipationType",
                      "code": "PPRF",
                      "display": "primary performer",
                      "userSelected": false
                    }
                  ],
                  "text": "Ordering Physician"
                }
              ],
              "period": {
                "start": "2022-01-06T18:28:11.000Z"
              },
              "individual": {
                "reference": "Practitioner/12771721",
                "display": "McGucken, Francoise"
              }
            },
            {
              "type": [
                {
                  "coding": [
                    {
                      "system": "https://fhir.cerner.com/ec2458f2-1e24-41c8-b71b-0e701af7583d/codeSet/333",
                      "code": "1125",
                      "display": "Registered Nurse",
                      "userSelected": true
                    },
                    {
                      "system": "http://terminology.hl7.org/CodeSystem/v3-ParticipationType",
                      "code": "SPRF",
                      "display": "secondary performer",
                      "userSelected": false
                    }
                  ],
                  "text": "Registered Nurse"
                }
              ],
              "period": {
                "start": "2022-01-06T18:17:26.000Z"
              },
              "individual": {
                "reference": "Practitioner/607928",
                "display": "Cerner Test, Nurse Cerner"
              }
            },
            {
              "type": [
                {
                  "coding": [
                    {
                      "system": "https://fhir.cerner.com/ec2458f2-1e24-41c8-b71b-0e701af7583d/codeSet/333",
                      "code": "1126",
                      "display": "Referring Physician",
                      "userSelected": true
                    },
                    {
                      "system": "http://terminology.hl7.org/CodeSystem/v3-ParticipationType",
                      "code": "REF",
                      "display": "referrer",
                      "userSelected": false
                    }
                  ],
                  "text": "Referring Physician"
                }
              ],
              "period": {
                "start": "2022-01-06T17:04:00.000Z"
              },
              "individual": {
                "reference": "Practitioner/12771721",
                "display": "McGucken, Francoise"
              }
            },
            {
              "type": [
                {
                  "coding": [
                    {
                      "system": "https://fhir.cerner.com/ec2458f2-1e24-41c8-b71b-0e701af7583d/codeSet/333",
                      "code": "681274",
                      "display": "Database Coordinator",
                      "userSelected": true
                    },
                    {
                      "system": "http://terminology.hl7.org/CodeSystem/v3-ParticipationType",
                      "code": "PART",
                      "display": "Participation",
                      "userSelected": false
                    }
                  ],
                  "text": "Database Coordinator"
                }
              ],
              "period": {
                "start": "2022-01-06T18:18:55.000Z"
              },
              "individual": {
                "reference": "Practitioner/12752117",
                "display": "Joyce, Patrick"
              }
            }
          ],
          "period": {
            "start": "2021-07-28T13:00:00.000Z",
            "end": "2021-07-29T04:59:59.000Z"
          },
          "reasonCode": [
            {
              "text": "HealthCare Survey"
            }
          ],
          "hospitalization": {
            "admitSource": {
              "coding": [
                {
                  "system": "https://fhir.cerner.com/ec2458f2-1e24-41c8-b71b-0e701af7583d/codeSet/2",
                  "code": "309191",
                  "display": "Clinic or Physician Office Referral",
                  "userSelected": true
                },
                {
                  "system": "http://terminology.hl7.org/CodeSystem/admit-source",
                  "code": "gp",
                  "display": "General Practitioner referral",
                  "userSelected": false
                }
              ],
              "text": "Clinic or Physician Office Referral"
            },
            "dischargeDisposition": {
              "coding": [
                {
                  "system": "https://fhir.cerner.com/ec2458f2-1e24-41c8-b71b-0e701af7583d/codeSet/19",
                  "code": "638671",
                  "display": "Home or Self Care",
                  "userSelected": true
                },
                {
                  "system": "http://terminology.hl7.org/CodeSystem/discharge-disposition",
                  "code": "home",
                  "display": "Home",
                  "userSelected": false
                }
              ],
              "text": "Home or Self Care"
            }
          },
          "location": [
            {
              "location": {
                "reference": "Location/21304876",
                "display": "Model Clinic 1, MX Clinic 1, MX Clinic 1"
              },
              "status": "completed"
            }
          ],
          "serviceProvider": {
            "reference": "Organization/685844",
            "display": "Model Clinic 1"
          }
        }
      },
      {
        "resource": {
          "resourceType": "Observation",
          "id": "M-197576782",
          "meta": {
            "versionId": "1",
            "lastUpdated": "2022-01-06T18:26:11.000Z"
          },
          "text": {
            "status": "generated",
            "div": "<div xmlns=\"http://www.w3.org/1999/xhtml\"><p><b>Observation</b></p><p><b>Patient Id</b>: 12771720</p><p><b>Status</b>: Final</p><p><b>Categories</b>: Vital Signs</p><p><b>Code</b>: Heart Rate Monitored</p><p><b>Result</b>: 64 bpm</p><p><b>Interpretation</b>: Normal</p><p><b>Effective Date</b>: Jan  6, 2022  6:17 P.M. UTC</p><p><b>Reference Range</b>: 60-100 bpm</p></div>"
          },
          "identifier": [
            {
              "system": "https://fhir.cerner.com/ceuuid",
              "value": "CE87caf4b7-9397-4667-9897-702218017c9e-197576782-2022010618261100"
            }
          ],
          "status": "final",
          "category": [
            {
              "coding": [
                {
                  "system": "http://terminology.hl7.org/CodeSystem/observation-category",
                  "code": "vital-signs",
                  "display": "Vital Signs"
                }
              ],
              "text": "Vital Signs"
            }
          ],
          "code": {
            "coding": [
              {
                "system": "https://fhir.cerner.com/ec2458f2-1e24-41c8-b71b-0e701af7583d/codeSet/72",
                "code": "2700541",
                "display": "Heart Rate Monitored",
                "userSelected": true
              },
              {
                "system": "http://loinc.org",
                "code": "76282-3"
              },
              {
                "system": "http://loinc.org",
                "code": "8867-4"
              }
            ],
            "text": "Heart Rate Monitored"
          },
          "subject": {
            "reference": "Patient/12771720"
          },
          "encounter": {
            "reference": "Encounter/97966949"
          },
          "effectiveDateTime": "2022-01-06T18:17:00.000Z",
          "issued": "2022-01-06T18:26:11.000Z",
          "performer": [
            {
              "extension": [
                {
                  "url": "http://hl7.org/fhir/StructureDefinition/event-performerFunction",
                  "valueCodeableConcept": {
                    "coding": [
                      {
                        "system": "http://terminology.hl7.org/CodeSystem/v3-ParticipationType",
                        "code": "PPRF",
                        "display": "primary performer"
                      }
                    ],
                    "text": "primary performer"
                  }
                }
              ],
              "reference": "Practitioner/607928"
            }
          ],
          "valueQuantity": {
            "value": 64,
            "unit": "bpm",
            "system": "http://unitsofmeasure.org",
            "code": "{beats}/min"
          },
          "interpretation": [
            {
              "coding": [
                {
                  "system": "https://fhir.cerner.com/ec2458f2-1e24-41c8-b71b-0e701af7583d/codeSet/52",
                  "code": "214",
                  "userSelected": true
                },
                {
                  "system": "http://terminology.hl7.org/CodeSystem/v3-ObservationInterpretation",
                  "code": "N",
                  "display": "Normal"
                }
              ]
            }
          ],
          "referenceRange": [
            {
              "low": {
                "value": 60,
                "unit": "bpm",
                "system": "http://unitsofmeasure.org",
                "code": "{beats}/min"
              },
              "high": {
                "value": 100,
                "unit": "bpm",
                "system": "http://unitsofmeasure.org",
                "code": "{beats}/min"
              },
              "type": {
                "coding": [
                  {
                    "system": "http://terminology.hl7.org/CodeSystem/referencerange-meaning",
                    "code": "normal",
                    "display": "Normal Range"
                  }
                ],
                "text": "Normal Range"
              }
            }
          ]
        }
      },
      {
        "resource": {
          "resourceType": "Observation",
          "id": "BP-197576776-197576778",
          "meta": {
            "versionId": "1-1",
            "lastUpdated": "2022-01-06T18:26:11.000Z"
          },
          "text": {
            "status": "generated",
            "div": "<div xmlns=\"http://www.w3.org/1999/xhtml\"><p><b>Observation</b></p><p><b>Patient Id</b>: 12771720</p><p><b>Status</b>: Final</p><p><b>Categories</b>: Vital Signs</p><p><b>Code</b>: Blood pressure</p><p><b>Components</b>:</p><dl><dt>Systolic Blood Pressure</dt><dd><b>Result</b>: 122 mmHg</dd><dd><b>Reference Range</b>: 90-140 mmHg</dd><dd><b>Interpretation</b>: Normal</dd><dt>Diastolic Blood Pressure</dt><dd><b>Result</b>: 78 mmHg</dd><dd><b>Reference Range</b>: 60-90 mmHg</dd><dd><b>Interpretation</b>: Normal</dd></dl><p><b>Effective Date</b>: Jan  6, 2022  6:17 P.M. UTC</p></div>"
          },
          "identifier": [
            {
              "system": "https://fhir.cerner.com/ceuuid",
              "value": "CE87caf4b7-9397-4667-9897-702218017c9e-197576776-2022010618261100"
            },
            {
              "system": "https://fhir.cerner.com/ceuuid",
              "value": "CE87caf4b7-9397-4667-9897-702218017c9e-197576778-2022010618261100"
            }
          ],
          "status": "final",
          "category": [
            {
              "coding": [
                {
                  "system": "http://terminology.hl7.org/CodeSystem/observation-category",
                  "code": "vital-signs",
                  "display": "Vital Signs"
                }
              ],
              "text": "Vital Signs"
            }
          ],
          "code": {
            "coding": [
              {
                "system": "http://snomed.info/sct",
                "code": "75367002",
                "display": "Blood pressure (observable entity)"
              },
              {
                "system": "http://loinc.org",
                "code": "85354-9",
                "display": "Blood pressure panel with all children optional"
              }
            ],
            "text": "Blood pressure"
          },
          "subject": {
            "reference": "Patient/12771720"
          },
          "encounter": {
            "reference": "Encounter/97966949"
          },
          "effectiveDateTime": "2022-01-06T18:17:00.000Z",
          "issued": "2022-01-06T18:26:11.000Z",
          "performer": [
            {
              "extension": [
                {
                  "url": "http://hl7.org/fhir/StructureDefinition/event-performerFunction",
                  "valueCodeableConcept": {
                    "coding": [
                      {
                        "system": "http://terminology.hl7.org/CodeSystem/v3-ParticipationType",
                        "code": "PPRF",
                        "display": "primary performer"
                      }
                    ],
                    "text": "primary performer"
                  }
                }
              ],
              "reference": "Practitioner/607928"
            }
          ],
          "component": [
            {
              "code": {
                "coding": [
                  {
                    "system": "https://fhir.cerner.com/ec2458f2-1e24-41c8-b71b-0e701af7583d/codeSet/72",
                    "code": "703501",
                    "display": "Systolic Blood Pressure",
                    "userSelected": true
                  },
                  {
                    "system": "http://loinc.org",
                    "code": "8480-6"
                  }
                ],
                "text": "Systolic Blood Pressure"
              },
              "valueQuantity": {
                "value": 122,
                "unit": "mmHg",
                "system": "http://unitsofmeasure.org",
                "code": "mm[Hg]"
              },
              "interpretation": [
                {
                  "coding": [
                    {
                      "system": "https://fhir.cerner.com/ec2458f2-1e24-41c8-b71b-0e701af7583d/codeSet/52",
                      "code": "214",
                      "userSelected": true
                    },
                    {
                      "system": "http://terminology.hl7.org/CodeSystem/v3-ObservationInterpretation",
                      "code": "N",
                      "display": "Normal"
                    }
                  ]
                }
              ],
              "referenceRange": [
                {
                  "low": {
                    "value": 90,
                    "unit": "mmHg",
                    "system": "http://unitsofmeasure.org",
                    "code": "mm[Hg]"
                  },
                  "high": {
                    "value": 140,
                    "unit": "mmHg",
                    "system": "http://unitsofmeasure.org",
                    "code": "mm[Hg]"
                  },
                  "type": {
                    "coding": [
                      {
                        "system": "http://terminology.hl7.org/CodeSystem/referencerange-meaning",
                        "code": "normal",
                        "display": "Normal Range"
                      }
                    ],
                    "text": "Normal Range"
                  }
                }
              ]
            },
            {
              "code": {
                "coding": [
                  {
                    "system": "https://fhir.cerner.com/ec2458f2-1e24-41c8-b71b-0e701af7583d/codeSet/72",
                    "code": "703516",
                    "display": "Diastolic Blood Pressure",
                    "userSelected": true
                  },
                  {
                    "system": "http://loinc.org",
                    "code": "8462-4"
                  }
                ],
                "text": "Diastolic Blood Pressure"
              },
              "valueQuantity": {
                "value": 78,
                "unit": "mmHg",
                "system": "http://unitsofmeasure.org",
                "code": "mm[Hg]"
              },
              "interpretation": [
                {
                  "coding": [
                    {
                      "system": "https://fhir.cerner.com/ec2458f2-1e24-41c8-b71b-0e701af7583d/codeSet/52",
                      "code": "214",
                      "userSelected": true
                    },
                    {
                      "system": "http://terminology.hl7.org/CodeSystem/v3-ObservationInterpretation",
                      "code": "N",
                      "display": "Normal"
                    }
                  ]
                }
              ],
              "referenceRange": [
                {
                  "low": {
                    "value": 60,
                    "unit": "mmHg",
                    "system": "http://unitsofmeasure.org",
                    "code": "mm[Hg]"
                  },
                  "high": {
                    "value": 90,
                    "unit": "mmHg",
                    "system": "http://unitsofmeasure.org",
                    "code": "mm[Hg]"
                  },
                  "type": {
                    "coding": [
                      {
                        "system": "http://terminology.hl7.org/CodeSystem/referencerange-meaning",
                        "code": "normal",
                        "display": "Normal Range"
                      }
                    ],
                    "text": "Normal Range"
                  }
                }
              ]
            }
          ]
        }
      },
      {
        "resource": {
          "resourceType": "Observation",
          "id": "M-197576772",
          "meta": {
            "versionId": "1",
            "lastUpdated": "2022-01-06T18:18:14.000Z"
          },
          "text": {
            "status": "generated",
            "div": "<div xmlns=\"http://www.w3.org/1999/xhtml\"><p><b>Observation</b></p><p><b>Patient Id</b>: 12771720</p><p><b>Status</b>: Final</p><p><b>Categories</b>: Vital Signs</p><p><b>Code</b>: Height/Length Measured</p><p><b>Result</b>: 178 cm</p><p><b>Effective Date</b>: Jan  6, 2022  6:17 P.M. UTC</p></div>"
          },
          "identifier": [
            {
              "system": "https://fhir.cerner.com/ceuuid",
              "value": "CE87caf4b7-9397-4667-9897-702218017c9e-197576772-2022010618181400"
            }
          ],
          "status": "final",
          "category": [
            {
              "coding": [
                {
                  "system": "http://terminology.hl7.org/CodeSystem/observation-category",
                  "code": "vital-signs",
                  "display": "Vital Signs"
                }
              ],
              "text": "Vital Signs"
            }
          ],
          "code": {
            "coding": [
              {
                "system": "https://fhir.cerner.com/ec2458f2-1e24-41c8-b71b-0e701af7583d/codeSet/72",
                "code": "4154126",
                "display": "Height/Length Measured",
                "userSelected": true
              },
              {
                "system": "http://loinc.org",
                "code": "8302-2"
              },
              {
                "system": "http://loinc.org",
                "code": "3137-7"
              }
            ],
            "text": "Height/Length Measured"
          },
          "subject": {
            "reference": "Patient/12771720"
          },
          "encounter": {
            "reference": "Encounter/97966949"
          },
          "effectiveDateTime": "2022-01-06T18:17:00.000Z",
          "issued": "2022-01-06T18:18:14.000Z",
          "performer": [
            {
              "extension": [
                {
                  "url": "http://hl7.org/fhir/StructureDefinition/event-performerFunction",
                  "valueCodeableConcept": {
                    "coding": [
                      {
                        "system": "http://terminology.hl7.org/CodeSystem/v3-ParticipationType",
                        "code": "PPRF",
                        "display": "primary performer"
                      }
                    ],
                    "text": "primary performer"
                  }
                }
              ],
              "reference": "Practitioner/607928"
            }
          ],
          "valueQuantity": {
            "value": 178,
            "unit": "cm",
            "system": "http://unitsofmeasure.org",
            "code": "cm"
          }
        }
      },
      {
        "resource": {
          "resourceType": "Observation",
          "id": "M-197576774",
          "meta": {
            "versionId": "1",
            "lastUpdated": "2022-01-06T18:18:14.000Z"
          },
          "text": {
            "status": "generated",
            "div": "<div xmlns=\"http://www.w3.org/1999/xhtml\"><p><b>Observation</b></p><p><b>Patient Id</b>: 12771720</p><p><b>Status</b>: Final</p><p><b>Categories</b>: Vital Signs</p><p><b>Code</b>: Weight Measured</p><p><b>Result</b>: 61.2 kg</p><p><b>Effective Date</b>: Jan  6, 2022  6:17 P.M. UTC</p></div>"
          },
          "identifier": [
            {
              "system": "https://fhir.cerner.com/ceuuid",
              "value": "CE87caf4b7-9397-4667-9897-702218017c9e-197576774-2022010618181400"
            }
          ],
          "status": "final",
          "category": [
            {
              "coding": [
                {
                  "system": "http://terminology.hl7.org/CodeSystem/observation-category",
                  "code": "vital-signs",
                  "display": "Vital Signs"
                }
              ],
              "text": "Vital Signs"
            }
          ],
          "code": {
            "coding": [
              {
                "system": "https://fhir.cerner.com/ec2458f2-1e24-41c8-b71b-0e701af7583d/codeSet/72",
                "code": "4154120",
                "display": "Weight Measured",
                "userSelected": true
              },
              {
                "system": "http://loinc.org",
                "code": "29463-7"
              },
              {
                "system": "http://loinc.org",
                "code": "3141-9"
              }
            ],
            "text": "Weight Measured"
          },
          "subject": {
            "reference": "Patient/12771720"
          },
          "encounter": {
            "reference": "Encounter/97966949"
          },
          "effectiveDateTime": "2022-01-06T18:17:00.000Z",
          "issued": "2022-01-06T18:18:14.000Z",
          "performer": [
            {
              "extension": [
                {
                  "url": "http://hl7.org/fhir/StructureDefinition/event-performerFunction",
                  "valueCodeableConcept": {
                    "coding": [
                      {
                        "system": "http://terminology.hl7.org/CodeSystem/v3-ParticipationType",
                        "code": "PPRF",
                        "display": "primary performer"
                      }
                    ],
                    "text": "primary performer"
                  }
                }
              ],
              "reference": "Practitioner/607928"
            }
          ],
          "valueQuantity": {
            "value": 61.2,
            "unit": "kg",
            "system": "http://unitsofmeasure.org",
            "code": "kg"
          }
        }
      },
      {
        "resource": {
          "resourceType": "Observation",
          "id": "M-197576780",
          "meta": {
            "versionId": "1",
            "lastUpdated": "2022-01-06T18:26:11.000Z"
          },
          "text": {
            "status": "generated",
            "div": "<div xmlns=\"http://www.w3.org/1999/xhtml\"><p><b>Observation</b></p><p><b>Patient Id</b>: 12771720</p><p><b>Status</b>: Final</p><p><b>Categories</b>: Vital Signs</p><p><b>Code</b>: Respiratory Rate</p><p><b>Result</b>: 20 br/min</p><p><b>Interpretation</b>: Normal</p><p><b>Effective Date</b>: Jan  6, 2022  6:17 P.M. UTC</p><p><b>Reference Range</b>: 14-20 br/min</p></div>"
          },
          "identifier": [
            {
              "system": "https://fhir.cerner.com/ceuuid",
              "value": "CE87caf4b7-9397-4667-9897-702218017c9e-197576780-2022010618261100"
            }
          ],
          "status": "final",
          "category": [
            {
              "coding": [
                {
                  "system": "http://terminology.hl7.org/CodeSystem/observation-category",
                  "code": "vital-signs",
                  "display": "Vital Signs"
                }
              ],
              "text": "Vital Signs"
            }
          ],
          "code": {
            "coding": [
              {
                "system": "https://fhir.cerner.com/ec2458f2-1e24-41c8-b71b-0e701af7583d/codeSet/72",
                "code": "703540",
                "display": "Respiratory Rate",
                "userSelected": true
              },
              {
                "system": "http://loinc.org",
                "code": "9279-1"
              }
            ],
            "text": "Respiratory Rate"
          },
          "subject": {
            "reference": "Patient/12771720"
          },
          "encounter": {
            "reference": "Encounter/97966949"
          },
          "effectiveDateTime": "2022-01-06T18:17:00.000Z",
          "issued": "2022-01-06T18:26:11.000Z",
          "performer": [
            {
              "extension": [
                {
                  "url": "http://hl7.org/fhir/StructureDefinition/event-performerFunction",
                  "valueCodeableConcept": {
                    "coding": [
                      {
                        "system": "http://terminology.hl7.org/CodeSystem/v3-ParticipationType",
                        "code": "PPRF",
                        "display": "primary performer"
                      }
                    ],
                    "text": "primary performer"
                  }
                }
              ],
              "reference": "Practitioner/607928"
            }
          ],
          "valueQuantity": {
            "value": 20,
            "unit": "br/min",
            "system": "http://unitsofmeasure.org",
            "code": "{Breaths}/min"
          },
          "interpretation": [
            {
              "coding": [
                {
                  "system": "https://fhir.cerner.com/ec2458f2-1e24-41c8-b71b-0e701af7583d/codeSet/52",
                  "code": "214",
                  "userSelected": true
                },
                {
                  "system": "http://terminology.hl7.org/CodeSystem/v3-ObservationInterpretation",
                  "code": "N",
                  "display": "Normal"
                }
              ]
            }
          ],
          "referenceRange": [
            {
              "low": {
                "value": 14,
                "unit": "br/min",
                "system": "http://unitsofmeasure.org",
                "code": "{Breaths}/min"
              },
              "high": {
                "value": 20,
                "unit": "br/min",
                "system": "http://unitsofmeasure.org",
                "code": "{Breaths}/min"
              },
              "type": {
                "coding": [
                  {
                    "system": "http://terminology.hl7.org/CodeSystem/referencerange-meaning",
                    "code": "normal",
                    "display": "Normal Range"
                  }
                ],
                "text": "Normal Range"
              }
            }
          ]
        }
      },
      {
        "resource": {
          "resourceType": "Observation",
          "id": "M-197576784",
          "meta": {
            "versionId": "1",
            "lastUpdated": "2022-01-06T18:26:11.000Z"
          },
          "text": {
            "status": "generated",
            "div": "<div xmlns=\"http://www.w3.org/1999/xhtml\"><p><b>Observation</b></p><p><b>Patient Id</b>: 12771720</p><p><b>Status</b>: Final</p><p><b>Categories</b>: Vital Signs</p><p><b>Code</b>: SpO2</p><p><b>Result</b>: 97 %</p><p><b>Effective Date</b>: Jan  6, 2022  6:17 P.M. UTC</p></div>"
          },
          "identifier": [
            {
              "system": "https://fhir.cerner.com/ceuuid",
              "value": "CE87caf4b7-9397-4667-9897-702218017c9e-197576784-2022010618261100"
            }
          ],
          "status": "final",
          "category": [
            {
              "coding": [
                {
                  "system": "http://terminology.hl7.org/CodeSystem/observation-category",
                  "code": "vital-signs",
                  "display": "Vital Signs"
                }
              ],
              "text": "Vital Signs"
            }
          ],
          "code": {
            "coding": [
              {
                "system": "https://fhir.cerner.com/ec2458f2-1e24-41c8-b71b-0e701af7583d/codeSet/72",
                "code": "3623994",
                "display": "SpO2",
                "userSelected": true
              },
              {
                "system": "http://loinc.org",
                "code": "59408-5"
              },
              {
                "system": "http://loinc.org",
                "code": "2708-6"
              }
            ],
            "text": "SpO2"
          },
          "subject": {
            "reference": "Patient/12771720"
          },
          "encounter": {
            "reference": "Encounter/97966949"
          },
          "effectiveDateTime": "2022-01-06T18:17:00.000Z",
          "issued": "2022-01-06T18:26:11.000Z",
          "performer": [
            {
              "extension": [
                {
                  "url": "http://hl7.org/fhir/StructureDefinition/event-performerFunction",
                  "valueCodeableConcept": {
                    "coding": [
                      {
                        "system": "http://terminology.hl7.org/CodeSystem/v3-ParticipationType",
                        "code": "PPRF",
                        "display": "primary performer"
                      }
                    ],
                    "text": "primary performer"
                  }
                }
              ],
              "reference": "Practitioner/607928"
            }
          ],
          "valueQuantity": {
            "value": 97,
            "unit": "%",
            "system": "http://unitsofmeasure.org",
            "code": "%"
          }
        }
      },
      {
        "resource": {
          "resourceType": "Observation",
          "id": "M-197576788",
          "meta": {
            "versionId": "1",
            "lastUpdated": "2022-01-06T18:29:07.000Z"
          },
          "text": {
            "status": "generated",
            "div": "<div xmlns=\"http://www.w3.org/1999/xhtml\"><p><b>Observation</b></p><p><b>Patient Id</b>: 12771720</p><p><b>Status</b>: Final</p><p><b>Categories</b>: Laboratory</p><p><b>Code</b>: Hgb</p><p><b>Result</b>: 12.0 g/dL</p><p><b>Interpretation</b>: LOW</p><p><b>Effective Date</b>: Jan  6, 2022  6:27 P.M. UTC</p><p><b>Reference Range</b>: 13.2-16.6 g/dL</p></div>"
          },
          "identifier": [
            {
              "system": "https://fhir.cerner.com/ceuuid",
              "value": "CE87caf4b7-9397-4667-9897-702218017c9e-197576788-2022010618290800"
            }
          ],
          "basedOn": [
            {
              "reference": "ServiceRequest/344977693"
            }
          ],
          "status": "final",
          "category": [
            {
              "coding": [
                {
                  "system": "http://terminology.hl7.org/CodeSystem/observation-category",
                  "code": "laboratory",
                  "display": "Laboratory"
                }
              ],
              "text": "Laboratory"
            }
          ],
          "code": {
            "coding": [
              {
                "system": "https://fhir.cerner.com/ec2458f2-1e24-41c8-b71b-0e701af7583d/codeSet/72",
                "code": "21705368",
                "display": "Hgb",
                "userSelected": true
              },
              {
                "system": "http://loinc.org",
                "code": "718-7"
              }
            ],
            "text": "Hgb"
          },
          "subject": {
            "reference": "Patient/12771720"
          },
          "encounter": {
            "reference": "Encounter/97966949"
          },
          "effectiveDateTime": "2022-01-06T18:27:00.000Z",
          "issued": "2022-01-06T18:29:06.000Z",
          "performer": [
            {
              "extension": [
                {
                  "url": "http://hl7.org/fhir/StructureDefinition/event-performerFunction",
                  "valueCodeableConcept": {
                    "coding": [
                      {
                        "system": "http://terminology.hl7.org/CodeSystem/v2-0912",
                        "code": "OP",
                        "display": "Ordering Provider"
                      }
                    ],
                    "text": "Ordering Provider"
                  }
                }
              ],
              "reference": "Practitioner/12771721"
            },
            {
              "extension": [
                {
                  "url": "http://hl7.org/fhir/StructureDefinition/event-performerFunction",
                  "valueCodeableConcept": {
                    "coding": [
                      {
                        "system": "http://terminology.hl7.org/CodeSystem/v3-ParticipationType",
                        "code": "PPRF",
                        "display": "primary performer"
                      }
                    ],
                    "text": "primary performer"
                  }
                }
              ],
              "reference": "Practitioner/11786042"
            }
          ],
          "valueQuantity": {
            "value": 12.0,
            "unit": "g/dL",
            "system": "http://unitsofmeasure.org",
            "code": "g/dL"
          },
          "interpretation": [
            {
              "coding": [
                {
                  "system": "https://fhir.cerner.com/ec2458f2-1e24-41c8-b71b-0e701af7583d/codeSet/52",
                  "code": "211",
                  "display": "LOW",
                  "userSelected": true
                },
                {
                  "system": "http://terminology.hl7.org/CodeSystem/v3-ObservationInterpretation",
                  "code": "L",
                  "display": "Low"
                }
              ],
              "text": "LOW"
            }
          ],
          "referenceRange": [
            {
              "low": {
                "value": 13.2,
                "unit": "g/dL",
                "system": "http://unitsofmeasure.org",
                "code": "g/dL"
              },
              "high": {
                "value": 16.6,
                "unit": "g/dL",
                "system": "http://unitsofmeasure.org",
                "code": "g/dL"
              },
              "type": {
                "coding": [
                  {
                    "system": "http://terminology.hl7.org/CodeSystem/referencerange-meaning",
                    "code": "normal",
                    "display": "Normal Range"
                  }
                ],
                "text": "Normal Range"
              }
            }
          ]
        }
      },
      {
        "resource": {
          "resourceType": "Condition",
          "id": "d2574419703",
          "meta": {
            "versionId": "2574419703",
            "lastUpdated": "2022-01-06T18:20:16.000Z"
          },
          "text": {
            "status": "generated",
            "div": "<div xmlns=\"http://www.w3.org/1999/xhtml\"><p><b>Condition</b></p><p><b>Patient</b>: DOY, ZARLA MOON</p><p><b>Diagnosis</b>: Acute pulmonary edema, Acute pulmonary edema (disorder)</p><p><b>Category Classification</b>: Medical</p><p><b>Clinical Status</b>: Active</p><p><b>Verification Status</b>: Confirmed</p><p><b>Onset</b>: Jul 28, 2021  5:00 P.M. UTC</p></div>"
          },
          "clinicalStatus": {
            "coding": [
              {
                "system": "http://terminology.hl7.org/CodeSystem/condition-clinical",
                "code": "active",
                "display": "Active"
              }
            ],
            "text": "Active"
          },
          "verificationStatus": {
            "coding": [
              {
                "system": "http://terminology.hl7.org/CodeSystem/condition-ver-status",
                "code": "confirmed",
                "display": "Confirmed",
                "userSelected": false
              }
            ],
            "text": "Confirmed"
          },
          "category": [
            {
              "coding": [
                {
                  "system": "http://terminology.hl7.org/CodeSystem/condition-category",
                  "code": "encounter-diagnosis",
                  "display": "Encounter Diagnosis"
                }
              ],
              "text": "Encounter Diagnosis"
            },
            {
              "coding": [
                {
                  "system": "http://snomed.info/sct",
                  "code": "74188005",
                  "display": "Medical (qualifier value)",
                  "userSelected": false
                }
              ],
              "text": "Medical"
            }
          ],
          "code": {
            "coding": [
              {
                "system": "http://snomed.info/sct",
                "code": "40541001",
                "display": "Acute pulmonary edema (disorder)",
                "userSelected": true
              },
              {
                "system": "http://hl7.org/fhir/sid/icd-10-cm",
                "code": "J81.0",
                "display": "Acute pulmonary edema",
                "userSelected": false
              }
            ],
            "text": "Acute pulmonary edema"
          },
          "subject": {
            "reference": "Patient/12771720",
            "display": "DOY, ZARLA MOON"
          },
          "encounter": {
            "reference": "Encounter/97966949"
          },
          "onsetDateTime": "2021-07-28T17:00:00.000Z",
          "recordedDate": "2022-01-06T18:20:16.000Z",
          "recorder": {
            "reference": "Practitioner/12752117",
            "display": "Joyce, Patrick"
          }
        }
      },
      {
        "resource": {
          "resourceType": "Condition",
          "id": "d2574419705",
          "meta": {
            "versionId": "2574419705",
            "lastUpdated": "2022-01-06T18:23:05.000Z"
          },
          "text": {
            "status": "generated",
            "div": "<div xmlns=\"http://www.w3.org/1999/xhtml\"><p><b>Condition</b></p><p><b>Patient</b>: DOY, ZARLA MOON</p><p><b>Diagnosis</b>: Hypertensive disorder, systemic arterial, Hypertensive disorder, systemic arterial (disorder)</p><p><b>Category Classification</b>: Medical</p><p><b>Clinical Status</b>: Active</p><p><b>Verification Status</b>: Confirmed</p><p><b>Onset</b>: Jul 28, 2021  5:00 P.M. UTC</p></div>"
          },
          "clinicalStatus": {
            "coding": [
              {
                "system": "http://terminology.hl7.org/CodeSystem/condition-clinical",
                "code": "active",
                "display": "Active"
              }
            ],
            "text": "Active"
          },
          "verificationStatus": {
            "coding": [
              {
                "system": "http://terminology.hl7.org/CodeSystem/condition-ver-status",
                "code": "confirmed",
                "display": "Confirmed",
                "userSelected": false
              }
            ],
            "text": "Confirmed"
          },
          "category": [
            {
              "coding": [
                {
                  "system": "http://terminology.hl7.org/CodeSystem/condition-category",
                  "code": "encounter-diagnosis",
                  "display": "Encounter Diagnosis"
                }
              ],
              "text": "Encounter Diagnosis"
            },
            {
              "coding": [
                {
                  "system": "http://snomed.info/sct",
                  "code": "74188005",
                  "display": "Medical (qualifier value)",
                  "userSelected": false
                }
              ],
              "text": "Medical"
            }
          ],
          "code": {
            "coding": [
              {
                "system": "http://snomed.info/sct",
                "code": "38341003",
                "display": "Hypertensive disorder, systemic arterial (disorder)",
                "userSelected": true
              },
              {
                "system": "http://hl7.org/fhir/sid/icd-10-cm",
                "code": "I10",
                "display": "Essential (primary) hypertension",
                "userSelected": false
              }
            ],
            "text": "Hypertensive disorder, systemic arterial"
          },
          "subject": {
            "reference": "Patient/12771720",
            "display": "DOY, ZARLA MOON"
          },
          "encounter": {
            "reference": "Encounter/97966949"
          },
          "onsetDateTime": "2021-07-28T17:00:00.000Z",
          "recordedDate": "2022-01-06T18:23:05.000Z",
          "recorder": {
            "reference": "Practitioner/12752117",
            "display": "Joyce, Patrick"
          }
        }
      },
      {
        "resource": {
          "resourceType": "MedicationRequest",
          "id": "344977747",
          "meta": {
            "versionId": "0",
            "lastUpdated": "2022-01-06T18:21:06Z"
          },
          "text": {
            "status": "generated",
            "div": "<div xmlns=\"http://www.w3.org/1999/xhtml\"><p><b>Medication Request</b></p><p><b>Status</b>: Active</p><p><b>Intent</b>: Plan</p><p><b>Medication</b>: lisinopril (lisinopril 10 mg oral tablet)</p><p><b>Dosage Instructions</b>: 10 mg = 1 tab, Oral, Daily, 30 tab, 0 Refill(s)</p><p><b>Patient</b>: DOY, ZARLA MOON</p><p><b>Authored On</b>: Jan  6, 2022  6:20 P.M. UTC</p></div>"
          },
          "extension": [
            {
              "url": "http://electronichealth.se/fhir/StructureDefinition/NLLPrescriptionFormat",
              "valueCoding": {
                "system": "http://electronichealth.se/fhir/ValueSet/prescription-format",
                "code": "ELECTRONIC",
                "display": "Electronic"
              }
            },
            {
              "url": "http://electronichealth.se/fhir/StructureDefinition/NLLRegistrationBasis",
              "valueCoding": {
                "system": "http://ehalsomyndigheten.se/fhir/ValueSet/registration-basis-codes",
                "code": "ELECTRONIC",
                "display": "Electronic"
              }
            },
            {
              "url": "https://fhir-ehr.cerner.com/r4/StructureDefinition/pharmacy-verification-status",
              "valueCodeableConcept": {
                "text": "Does not need pharmacy verification"
              }
            }
          ],
          "status": "active",
          "intent": "plan",
          "category": [
            {
              "coding": [
                {
                  "system": "http://terminology.hl7.org/CodeSystem/medicationrequest-category",
                  "code": "community",
                  "display": "Community",
                  "userSelected": false
                }
              ]
            },
            {
              "coding": [
                {
                  "system": "http://terminology.hl7.org/CodeSystem/medication-statement-category",
                  "code": "patientspecified",
                  "display": "Patient Specified",
                  "userSelected": false
                }
              ]
            }
          ],
          "reportedBoolean": true,
          "medicationCodeableConcept": {
            "coding": [
              {
                "system": "http://www.nlm.nih.gov/research/umls/rxnorm",
                "code": "314076",
                "display": "Lisinopril 10 MG Oral Tablet",
                "userSelected": false
              },
              {
                "system": "https://fhir.cerner.com/ec2458f2-1e24-41c8-b71b-0e701af7583d/synonym",
                "code": "2762241",
                "display": "lisinopril 10 mg oral tablet",
                "userSelected": true
              }
            ],
            "text": "lisinopril (lisinopril 10 mg oral tablet)"
          },
          "subject": {
            "reference": "Patient/12771720",
            "display": "DOY, ZARLA MOON"
          },
          "encounter": {
            "reference": "Encounter/97966949"
          },
          "authoredOn": "2022-01-06T18:20:59Z",
          "requester": {
            "extension": [
              {
                "url": "http://hl7.org/fhir/StructureDefinition/data-absent-reason",
                "valueCode": "unknown"
              }
            ]
          },
          "courseOfTherapyType": {
            "coding": [
              {
                "system": "https://fhir.cerner.com/ec2458f2-1e24-41c8-b71b-0e701af7583d/codeSet/4009",
                "code": "2338",
                "display": "Soft Stop",
                "userSelected": true
              },
              {
                "system": "http://terminology.hl7.org/CodeSystem/medicationrequest-course-of-therapy",
                "code": "continuous",
                "display": "Continuous long term therapy",
                "userSelected": false
              }
            ],
            "text": "Maintenance"
          },
          "dosageInstruction": [
            {
              "extension": [
                {
                  "url": "https://fhir-ehr.cerner.com/r4/StructureDefinition/clinical-instruction",
                  "valueString": "10 mg = 1 tab, Oral, Daily, # 30 tab, 0 Refill(s)"
                }
              ],
              "text": "10 mg = 1 tab, Oral, Daily, 30 tab, 0 Refill(s)",
              "patientInstruction": "1 tab Oral (given by mouth) every day.",
              "timing": {
                "repeat": {
                  "boundsPeriod": {
                    "start": "2022-01-06T18:20:00Z"
                  }
                },
                "code": {
                  "coding": [
                    {
                      "system": "https://fhir.cerner.com/ec2458f2-1e24-41c8-b71b-0e701af7583d/codeSet/4003",
                      "code": "696530",
                      "display": "Daily",
                      "userSelected": true
                    },
                    {
                      "system": "http://snomed.info/sct",
                      "code": "229797004",
                      "display": "Once daily (qualifier value)",
                      "userSelected": false
                    },
                    {
                      "system": "http://terminology.hl7.org/CodeSystem/v3-GTSAbbreviation",
                      "code": "QD",
                      "display": "QD",
                      "userSelected": false
                    }
                  ],
                  "text": "Daily"
                }
              },
              "route": {
                "coding": [
                  {
                    "system": "https://fhir.cerner.com/ec2458f2-1e24-41c8-b71b-0e701af7583d/codeSet/4001",
                    "code": "318185",
                    "display": "Oral",
                    "userSelected": true
                  },
                  {
                    "system": "http://snomed.info/sct",
                    "code": "26643006",
                    "display": "Oral route (qualifier value)",
                    "userSelected": false
                  }
                ],
                "text": "Oral"
              },
              "doseAndRate": [
                {
                  "doseQuantity": {
                    "value": 1.0,
                    "unit": "tab",
                    "system": "http://unitsofmeasure.org",
                    "code": "{tbl}"
                  }
                }
              ]
            }
          ],
          "dispenseRequest": {
            "extension": [
              {
                "url": "http://electronichealth.se/fhir/StructureDefinition/NLLDosePackaging",
                "valueBoolean": false
              }
            ],
            "validityPeriod": {
              "start": "2022-01-06T18:20:59Z"
            },
            "numberOfRepeatsAllowed": 0,
            "quantity": {
              "value": 30.0,
              "unit": "tab",
              "system": "http://unitsofmeasure.org",
              "code": "{tbl}"
            }
          },
          "substitution": {
            "allowedBoolean": true
          }
        }
      }
    ]
  }
}